timestamp,timestamp_sample,ref_timestamp,ref_lat,ref_lon,x,y,z,delta_xy[0],delta_xy[1],delta_z,vx,vy,vz,z_deriv,delta_vxy[0],delta_vxy[1],delta_vz,ax,ay,az,heading,delta_heading,ref_alt,dist_bottom,eph,epv,evh,evv,vxy_max,vz_max,hagl_min,hagl_max,xy_valid,z_valid,v_xy_valid,v_z_valid,xy_reset_counter,z_reset_counter,vxy_reset_counter,vz_reset_counter,heading_reset_counter,xy_global,z_global,dist_bottom_valid,dist_bottom_sensor_bitfield
368082105,368080459,87964659,-6.3607016000000005,106.82454369999999,13.68699,-3.301613,0.106839366,0.010761263,0.016180344,0.0,-0.013110748,0.0029454385,-0.099253766,-0.16609609,0.10868411,0.077194646,-0.21394694,3.3507895,0.67268836,0.544804,-0.06200923,-0.0006439539,90.90057,0.1,0.38941008,0.39631632,0.14343752,0.10618548,inf,inf,inf,inf,1,1,1,1,2,0,2,1,3,1,1,1,0
368172115,368170408,87964659,-6.3607016000000005,106.82454369999999,13.684264,-3.2981443,0.088638745,0.010761263,0.016180344,0.0,-0.010490164,-0.00439721,-0.14220554,-0.20815124,0.10868411,0.077194646,-0.21394694,-0.16773552,-1.7457618,0.3258296,-0.060501095,-0.0006439539,90.90057,0.1142231,0.3965508,0.3973125,0.14788799,0.107407466,inf,inf,inf,inf,1,1,1,1,2,0,2,1,3,1,1,1,0
368270934,368269317,87964659,-6.3607016000000005,106.82454369999999,13.681587,-3.29888,0.07627983,0.010761263,0.016180344,0.0,-0.022930086,-0.002866832,-0.15071803,-0.20745724,0.10868411,0.077194646,-0.21394694,0.1344814,0.16032295,-0.4272077,-0.061880555,-0.0006439539,90.90057,0.13676307,0.38845548,0.3945191,0.14337845,0.10585787,inf,inf,inf,inf,1,1,1,1,2,0,2,1,3,1,1,1,0
368369986,368368243,87964659,-6.3607016000000005,106.82454369999999,13.679086,-3.2994485,0.06443897,0.010761263,0.016180344,0.0,-0.023163727,0.009140206,-0.1522291,-0.19989528,0.10868411,0.077194646,-0.21394694,-0.93519086,-0.7529822,0.3171509,-0.06069286,-0.0006439539,90.90057,0.13408428,0.39637926,0.39873686,0.14821899,0.10755391,inf,inf,inf,inf,1,1,1,1,2,0,2,1,3,1,1,1,0
368468818,368467184,87964659,-6.3607016000000005,106.82454369999999,13.674834,-3.3027256,0.061810005,0.010761263,0.016180344,0.0,-0.01526606,0.010189438,-0.14905477,-0.17983223,0.10868411,0.077194646,-0.21394694,-0.10772434,-0.49587956,-0.23431851,-0.06175279,-0.0006439539,90.90057,0.15674266,0.38828808,0.39591786,0.14345811,0.10599917,inf,inf,inf,inf,1,1,1,1,2,0,2,1,3,1,1,1,0
368572291,368570596,87964659,-6.3607016000000005,106.82454369999999,13.670731,-3.3053246,0.057816464,0.010761263,0.016180344,0.0,-0.01681852,0.011722125,-0.13404505,-0.15134162,0.10868411,0.077194646,-0.21394694,-0.010364044,-0.40082407,0.18917476,-0.060910266,-0.0006439539,90.90057,0.14671917,0.3962103,0.39758492,0.14809488,0.10741907,inf,inf,inf,inf,1,1,1,1,2,0,2,1,3,1,1,1,0
368670955,368669521,87964659,-6.3607016000000005,106.82454369999999,13.666265,-3.3086493,0.060869157,0.010761263,0.016180344,0.0,-0.016547598,0.00951047,-0.13207616,-0.13192955,0.10868411,0.077194646,-0.21394694,-0.38853315,-0.88828343,-0.13236088,-0.06155713,-0.0006439539,90.90057,0.16012524,0.38813043,0.3947944,0.14326845,0.10587214,inf,inf,inf,inf,1,1,1,1,2,0,2,1,3,1,1,1,0
368774560,368772943,87964659,-6.3607016000000005,106.82454369999999,13.662015,-3.3111296,0.060828097,0.010761263,0.016180344,0.0,-0.02087981,0.007508922,-0.13604659,-0.123043396,0.10868411,0.077194646,-0.21394694,-0.31755766,-0.46090004,-0.366129,-0.06093524,-0.0006439539,90.90057,0.1483165,0.3960518,0.39645022,0.14809197,0.107288785,inf,inf,inf,inf,1,1,1,1,2,0,2,1,3,1,1,1,0
368868739,368867379,87964659,-6.3607016000000005,106.82454369999999,13.656825,-3.3176796,0.06620663,0.010761263,0.016180344,0.0,-0.018188056,0.005084817,-0.12896824,-0.10053943,0.10868411,0.077194646,-0.21394694,-0.53968936,-0.782536,-0.09700961,-0.061453044,-0.0006439539,90.90057,0.15603241,0.38862374,0.3966137,0.14413176,0.10629543,inf,inf,inf,inf,1,1,1,1,2,0,2,1,3,1,1,1,0
368972231,368970796,87964659,-6.3607016000000005,106.82454369999999,13.652124,-3.322934,0.066919334,0.010761263,0.016180344,0.0,-0.022508891,-0.0007312137,-0.12744047,-0.08934657,0.10868411,0.077194646,-0.21394694,-0.52221054,-1.3018922,-0.22222456,-0.060968895,-0.0006439539,90.90057,0.14395455,0.39662227,0.39830256,0.148787,0.10771672,inf,inf,inf,inf,1,1,1,1,2,0,2,1,3,1,1,1,0
369071467,369069723,87964659,-6.3607016000000005,106.82454369999999,13.646841,-3.3276439,0.07254365,0.010761263,0.016180344,0.0,-0.02214337,-0.0021791027,-0.12295278,-0.07204146,0.10868411,0.077194646,-0.21394694,-0.1598205,-1.1505659,0.3350834,-0.06130514,-0.0006439539,90.90057,0.15528435,0.38844433,0.39548445,0.14388116,0.10614696,inf,inf,inf,inf,1,1,1,1,2,0,2,1,3,1,1,1,0
369170236,369168650,87964659,-6.3607016000000005,106.82454369999999,13.641912,-3.331179,0.07547298,0.010761263,0.016180344,0.0,-0.025053216,-0.0019334336,-0.1195081,-0.060468577,0.10868411,0.077194646,-0.21394694,-0.19014712,-0.8423888,0.09263252,-0.06093457,-0.0006439539,90.90057,0.14131942,0.39643252,0.397152,0.14871496,0.1075623,inf,inf,inf,inf,1,1,1,1,2,0,2,1,3,1,1,1,0
369269020,369267577,87964659,-6.3607016000000005,106.82454369999999,13.6357765,-3.337102,0.08308396,0.010761263,0.016180344,0.0,-0.025067708,-0.004831141,-0.10733749,-0.036793225,0.10868411,0.077194646,-0.21394694,-0.7270328,-1.1225882,-0.024745196,-0.061153848,-0.0006439539,90.90057,0.15272903,0.38828003,0.39435434,0.14382803,0.105999336,inf,inf,inf,inf,1,1,1,1,2,0,2,1,3,1,1,1,0
369367757,369366529,87964659,-6.3607016000000005,106.82454369999999,13.630173,-3.3422897,0.08770172,0.010761263,0.016180344,0.0,-0.028392257,-0.0070879343,-0.115912154,-0.03866226,0.10868411,0.077194646,-0.21394694,-0.9926928,-0.73720074,-0.11948145,-0.060974747,-0.0006439539,90.90057,0.1384451,0.3962615,0.3985777,0.14846985,0.1076944,inf,inf,inf,inf,1,1,1,1,2,0,2,1,3,1,1,1,0
369471175,369469927,87964659,-6.3607016000000005,106.82454369999999,13.625855,-3.347138,0.094664976,0.010761263,0.016180344,0.0,-0.029227724,-0.009990358,-0.10023208,-0.014562582,0.10868411,0.077194646,-0.21394694,-0.42070535,-0.7841604,-0.051936198,-0.061163936,-0.0006439539,90.90057,0.1457573,0.38811043,0.39574608,0.14364406,0.106124915,inf,inf,inf,inf,1,1,1,1,2,0,2,1,3,1,1,1,0
369570119,369568873,87964659,-6.3607016000000005,106.82454369999999,13.622405,-3.3510163,0.09932459,0.010761263,0.016180344,0.0,-0.026628314,-0.0116743,-0.09599177,-0.006475776,0.10868411,0.077194646,-0.21394694,-0.5172893,-0.98086655,-0.48270866,-0.060995895,-0.0006439539,90.90057,0.1317527,0.39608485,0.39741236,0.1484178,0.107541025,inf,inf,inf,inf,1,1,1,1,2,0,2,1,3,1,1,1,0
369669593,369667781,87964659,-6.3607016000000005,106.82454369999999,13.618465,-3.356201,0.10651725,0.010761263,0.016180344,0.0,-0.027577164,-0.014787581,-0.101546235,-0.0058655674,0.10868411,0.077194646,-0.21394694,-0.45030153,-0.52582604,-0.50740993,-0.061074898,-0.0006439539,90.90057,0.13770863,0.38811752,0.3947108,0.14379464,0.106052436,inf,inf,inf,inf,1,1,1,1,2,0,2,1,3,1,1,1,0
369768298,369766707,87964659,-6.3607016000000005,106.82454369999999,13.615011,-3.3606005,0.10956372,0.010761263,0.016180344,0.0,-0.027732966,-0.01516893,-0.09933198,-0.0023088325,0.10868411,0.077194646,-0.21394694,-0.50923663,-0.019056706,-0.49419647,-0.060929786,-0.0006439539,90.90057,0.12628917,0.39610776,0.39894342,0.14848799,0.107749,inf,inf,inf,inf,1,1,1,1,2,0,2,1,3,1,1,1,0
369871708,369870131,87964659,-6.3607016000000005,106.82454369999999,13.611194,-3.3620954,0.11433048,0.010761263,0.016180344,0.0,-0.026308915,-0.016395751,-0.08614055,0.013796466,0.10868411,0.077194646,-0.21394694,0.16305164,-0.35996288,0.3106022,-0.060931724,-0.0006439539,90.90057,0.13141319,0.38794938,0.39610863,0.14361767,0.10617781,inf,inf,inf,inf,1,1,1,1,2,0,2,1,3,1,1,1,0
369970304,369969060,87964659,-6.3607016000000005,106.82454369999999,13.607949,-3.362813,0.11753942,0.010761263,0.016180344,0.0,-0.024752805,-0.015035651,-0.0785643,0.020956028,0.10868411,0.077194646,-0.21394694,0.29752725,-0.4331604,0.4121021,-0.06076025,-0.0006439539,90.90057,0.120059446,0.39593053,0.39778575,0.14824457,0.107596755,inf,inf,inf,inf,1,1,1,1,2,0,2,1,3,1,1,1,0
370069234,370067986,87964659,-6.3607016000000005,106.82454369999999,13.604509,-3.3647816,0.120567754,0.010761263,0.016180344,0.0,-0.023052415,-0.016011922,-0.08437902,0.01485364,0.10868411,0.077194646,-0.21394694,0.13391241,-0.5180597,0.019424917,-0.060823727,-0.0006439539,90.90057,0.121140495,0.38857314,0.3955062,0.14450088,0.10638078,inf,inf,inf,inf,1,1,1,1,2,0,2,1,3,1,1,1,0
370168363,370166912,87964659,-6.3607016000000005,106.82454369999999,13.60141,-3.3666496,0.121419154,0.010761263,0.016180344,0.0,-0.025365684,-0.014774991,-0.07708097,0.019274691,0.10868411,0.077194646,-0.21394694,-0.15092331,-0.42974964,-0.19345215,-0.060632497,-0.0006439539,90.90057,0.1127973,0.3966409,0.39718568,0.14918838,0.107793055,inf,inf,inf,inf,1,1,1,1,2,0,2,1,3,1,1,1,0
370271580,370270344,87964659,-6.3607016000000005,106.82454369999999,13.596438,-3.3670185,0.12613651,0.010761263,0.016180344,0.0,-0.02524576,-0.01208407,-0.07053365,0.02693852,0.10868411,0.077194646,-0.21394694,-0.16835801,0.2049066,-0.17674126,-0.060711917,-0.0006439539,90.90057,0.120709,0.38844505,0.39690617,0.14426649,0.10649428,inf,inf,inf,inf,1,1,1,1,2,0,2,1,3,1,1,1,0
370370853,370369262,87964659,-6.3607016000000005,106.82454369999999,13.592022,-3.3670456,0.12856895,0.010761263,0.016180344,0.0,-0.025854195,-0.011356284,-0.0641266,0.031354044,0.10868411,0.077194646,-0.21394694,-0.15752777,0.3351222,-0.46289325,-0.06053027,-0.0006439539,90.90057,0.11190009,0.39650106,0.39859632,0.14889905,0.10791085,inf,inf,inf,inf,1,1,1,1,2,0,2,1,3,1,1,1,0
370469858,370468189,87964659,-6.3607016000000005,106.82454369999999,13.587872,-3.3695817,0.13314183,0.010761263,0.016180344,0.0,-0.027807824,-0.009981925,-0.06626053,0.029021863,0.10868411,0.077194646,-0.21394694,-0.03443183,0.025804263,-0.28678074,-0.060721632,-0.0006439539,90.90057,0.11624749,0.38846612,0.3958997,0.14435953,0.10641651,inf,inf,inf,inf,1,1,1,1,2,0,2,1,3,1,1,1,0
370568493,370567122,87964659,-6.3607016000000005,106.82454369999999,13.583952,-3.37212,0.13480714,0.010761263,0.016180344,0.0,-0.028495256,-0.012019761,-0.07054351,0.022264343,0.10868411,0.077194646,-0.21394694,-0.107314065,0.17400059,-0.22944838,-0.060714114,-0.0006439539,90.90057,0.10918772,0.3965319,0.3975798,0.14902757,0.107828505,inf,inf,inf,inf,1,1,1,1,2,0,2,1,3,1,1,1,0
370671953,370670539,87964659,-6.3607016000000005,106.82454369999999,13.580191,-3.3749535,0.13704045,0.010761263,0.016180344,0.0,-0.028738264,-0.009458593,-0.06123038,0.030098684,0.10868411,0.077194646,-0.21394694,0.03352959,0.41483217,0.15618739,-0.06092876,-0.0006439539,90.90057,0.113472596,0.38820904,0.39474514,0.14401847,0.10622692,inf,inf,inf,inf,1,1,1,1,2,0,2,1,3,1,1,1,0
370770885,370769466,87964659,-6.3607016000000005,106.82454369999999,13.576652,-3.37737,0.1382692,0.010761263,0.016180344,0.0,-0.027859898,-0.010366745,-0.058461484,0.02992276,0.10868411,0.077194646,-0.21394694,0.16367082,0.35153946,0.21592718,-0.060834337,-0.0006439539,90.90057,0.10626577,0.39625198,0.39898658,0.14865625,0.10792045,inf,inf,inf,inf,1,1,1,1,2,0,2,1,3,1,1,1,0
370870113,370868395,87964659,-6.3607016000000005,106.82454369999999,13.574312,-3.3772247,0.13549867,0.010761263,0.016180344,0.0,-0.026941834,-0.0102263335,-0.06506566,0.016826453,0.10868411,0.077194646,-0.21394694,0.9556509,0.27742508,-0.065976836,-0.060990445,-0.0006439539,90.90057,0.1,0.38801157,0.39614403,0.14389268,0.10633364,inf,inf,inf,inf,1,1,1,1,2,0,2,1,3,1,1,1,0
370968935,370967320,87964659,-6.3607016000000005,106.82454369999999,13.572264,-3.3766468,0.1310123,0.010761263,0.016180344,0.0,-0.025120836,-0.011753582,-0.0594963,0.015226307,0.10868411,0.077194646,-0.21394694,0.46258873,-0.23184766,0.079914674,-0.060864158,-0.0006439539,90.90057,0.1,0.39604,0.39781922,0.14855497,0.10774597,inf,inf,inf,inf,1,1,1,1,2,0,2,1,3,1,1,1,0
371072659,371070743,87964659,-6.3607016000000005,106.82454369999999,13.569716,-3.372726,0.123695485,0.010761263,0.016180344,0.0,-0.019878684,-0.0036042621,-0.049847748,0.0152244335,0.10868411,0.077194646,-0.21394694,0.41964588,0.17412153,0.27235085,-0.061041106,-0.0006439539,90.90057,0.1,0.38782036,0.3949899,0.14363493,0.10616537,inf,inf,inf,inf,1,1,1,1,2,0,2,1,3,1,1,1,0
371171074,371169676,87964659,-6.3607016000000005,106.82454369999999,13.567505,-3.368603,0.116647355,0.010761263,0.016180344,0.0,-0.018202567,0.00057497434,-0.043458495,0.012719486,0.10868411,0.077194646,-0.21394694,0.41370243,0.06797433,0.5245042,-0.060898628,-0.0006439539,90.90057,0.1,0.39583388,0.39923242,0.14823261,0.10785994,inf,inf,inf,inf,1,1,1,1,2,0,2,1,3,1,1,1,0
371269923,371268597,87964659,-6.3607016000000005,106.82454369999999,13.564766,-3.365615,0.10925954,0.010761263,0.016180344,0.0,-0.019002026,0.0056511494,-0.042147335,0.005188883,0.10868411,0.077194646,-0.21394694,-0.024545176,0.5115073,0.23382147,-0.060916416,-0.0006439539,90.90057,0.1,0.38763067,0.39638734,0.1433663,0.10627888,inf,inf,inf,inf,1,1,1,1,2,0,2,1,3,1,1,1,0
371368946,371367524,87964659,-6.3607016000000005,106.82454369999999,13.562295,-3.3631124,0.10220561,0.010761263,0.016180344,0.0,-0.017809087,0.0051642503,-0.05036677,-0.010628715,0.10868411,0.077194646,-0.21394694,-0.15810426,0.5896002,-0.22379896,-0.06072742,-0.0006439539,90.90057,0.1,0.39563277,0.3980768,0.14815624,0.10769689,inf,inf,inf,inf,1,1,1,1,2,0,2,1,3,1,1,1,0
371467761,371466473,87964659,-6.3607016000000005,106.82454369999999,13.559388,-3.3631063,0.09703145,0.010761263,0.016180344,0.0,-0.020426374,0.0042335843,-0.050102867,-0.014151211,0.10868411,0.077194646,-0.21394694,0.17549986,0.029106148,0.3706114,-0.06080559,-0.0006439539,90.90057,0.1,0.38744467,0.39524415,0.14335129,0.106121205,inf,inf,inf,inf,1,1,1,1,2,0,2,1,3,1,1,1,0
371571671,371569882,87964659,-6.3607016000000005,106.82454369999999,13.55669,-3.3633611,0.092083536,0.010761263,0.016180344,0.0,-0.01829452,0.0050053797,-0.045691594,-0.012932502,0.10868411,0.077194646,-0.21394694,-0.1425019,0.5776681,0.5257923,-0.06078877,-0.0006439539,90.90057,0.1,0.39543653,0.39691162,0.14800599,0.107533455,inf,inf,inf,inf,1,1,1,1,2,0,2,1,3,1,1,1,0
371670507,371668819,87964659,-6.3607016000000005,106.82454369999999,13.551666,-3.3657706,0.0913893,0.010761263,0.016180344,0.0,-0.024307044,0.005012491,-0.046677675,-0.013281319,0.10868411,0.077194646,-0.21394694,-0.40890005,0.05465301,0.13729897,-0.061055373,-0.0006439539,90.90057,0.10449517,0.38725248,0.39664015,0.14318423,0.10624049,inf,inf,inf,inf,1,1,1,1,2,0,2,1,3,1,1,1,0
371768985,371767728,87964659,-6.3607016000000005,106.82454369999999,13.546908,-3.367962,0.09056092,0.010761263,0.016180344,0.0,-0.02149583,0.003291194,-0.04307614,-0.009678403,0.10868411,0.077194646,-0.21394694,-0.24082053,0.042032253,-0.1556484,-0.0608879,-0.0006439539,90.90057,0.100779586,0.39523533,0.39832705,0.14797677,0.10765956,inf,inf,inf,inf,1,1,1,1,2,0,2,1,3,1,1,1,0
371872843,371871167,87964659,-6.3607016000000005,106.82454369999999,13.543241,-3.3698595,0.08964884,0.010761263,0.016180344,0.0,-0.018515969,0.0043006944,-0.027061753,0.0058750785,0.10868411,0.077194646,-0.21394694,0.46228996,0.28198877,1.1477163,-0.06115086,-0.0006439539,90.90057,0.10001892,0.38705772,0.39550805,0.14315489,0.1060925,inf,inf,inf,inf,1,1,1,1,2,0,2,1,3,1,1,1,0
371971350,371970079,87964659,-6.3607016000000005,106.82454369999999,13.540541,-3.3712525,0.08887448,0.010761263,0.016180344,0.0,-0.01640279,0.0022401938,-0.022526683,0.009096484,0.10868411,0.077194646,-0.21394694,0.47475535,-0.28552303,0.5455388,-0.061151598,-0.0006439539,90.90057,0.1,0.39503288,0.39718226,0.14792316,0.10750824,inf,inf,inf,inf,1,1,1,1,2,0,2,1,3,1,1,1,0
372070357,372069005,87964659,-6.3607016000000005,106.82454369999999,13.537528,-3.3707316,0.085272014,0.010761263,0.016180344,0.0,-0.018005151,0.0044264086,-0.035296902,-0.007439759,0.10868411,0.077194646,-0.21394694,0.20080431,0.24301921,0.0742642,-0.06121163,-0.0006439539,90.90057,0.1,0.38686806,0.39691123,0.14297,0.10621882,inf,inf,inf,inf,1,1,1,1,2,0,2,1,3,1,1,1,0
372169519,372167933,87964659,-6.3607016000000005,106.82454369999999,13.534918,-3.3697557,0.08028,0.010761263,0.016180344,0.0,-0.019063989,0.0052156993,-0.041657396,-0.017721655,0.10868411,0.077194646,-0.21394694,0.017359972,0.5993365,0.061349075,-0.061077025,-0.0006439539,90.90057,0.1,0.3948345,0.3985965,0.14779657,0.10763911,inf,inf,inf,inf,1,1,1,1,2,0,2,1,3,1,1,1,0
372268466,372266860,87964659,-6.3607016000000005,106.82454369999999,13.529455,-3.36853,0.07567844,0.010761263,0.016180344,0.0,-0.01705421,0.005579507,-0.0387572,-0.017623326,0.10868411,0.077194646,-0.21394694,0.14774139,0.21837804,0.57208717,-0.061109144,-0.0006439539,90.90057,0.1,0.38670692,0.39578137,0.14306383,0.10607709,inf,inf,inf,inf,1,1,1,1,2,0,2,1,3,1,1,1,0
372371923,372370283,87964659,-6.3607016000000005,106.82454369999999,13.524315,-3.3671286,0.0707152,0.010761263,0.016180344,0.0,-0.01709778,0.008101757,-0.04492045,-0.026227377,0.10868411,0.077194646,-0.21394694,0.41862127,0.27959195,0.6053182,-0.06126438,-0.0006439539,90.90057,0.1,0.39467007,0.39745432,0.14769849,0.10749409,inf,inf,inf,inf,1,1,1,1,2,0,2,1,3,1,1,1,0
372470883,372469210,87964659,-6.3607016000000005,106.82454369999999,13.518501,-3.3692157,0.06906904,0.010761263,0.016180344,0.0,-0.01691421,0.0077876486,-0.04317093,-0.02345794,0.10868411,0.077194646,-0.21394694,0.29462722,0.18432422,0.6346955,-0.06116841,-0.0006439539,90.90057,0.103949904,0.3868261,0.39484498,0.14330387,0.106064215,inf,inf,inf,inf,1,1,1,1,2,0,2,1,3,1,1,1,0
372569588,372568137,87964659,-6.3607016000000005,106.82454369999999,13.513623,-3.3714654,0.06746131,0.010761263,0.016180344,0.0,-0.016243178,0.0063699484,-0.04243285,-0.022121785,0.10868411,0.077194646,-0.21394694,0.528792,-0.20140173,0.40951717,-0.06133542,-0.0006439539,90.90057,0.10109958,0.39481848,0.3990803,0.14811154,0.10775931,inf,inf,inf,inf,1,1,1,1,2,0,2,1,3,1,1,1,0
372668334,372667071,87964659,-6.3607016000000005,106.82454369999999,13.507408,-3.3751705,0.07095465,0.010761263,0.016180344,0.0,-0.017497074,0.005523317,-0.034738228,-0.009146886,0.10868411,0.077194646,-0.21394694,-0.0150405895,-0.35518867,0.4554977,-0.06111859,-0.0006439539,90.90057,0.113744885,0.3866414,0.3962458,0.14328352,0.106187664,inf,inf,inf,inf,1,1,1,1,2,0,2,1,3,1,1,1,0
372772133,372770487,87964659,-6.3607016000000005,106.82454369999999,13.501804,-3.378295,0.073449075,0.010761263,0.016180344,0.0,-0.019976359,0.012962235,-0.034424298,-0.005209745,0.10868411,0.077194646,-0.21394694,0.34317106,1.0617282,0.61596245,-0.061153267,-0.0006439539,90.90057,0.108063966,0.39462534,0.39793146,0.14791082,0.107607014,inf,inf,inf,inf,1,1,1,1,2,0,2,1,3,1,1,1,0
372871036,372869414,87964659,-6.3607016000000005,106.82454369999999,13.496271,-3.383453,0.08021311,0.010761263,0.016180344,0.0,-0.018241247,0.009572999,-0.030445023,0.005753335,0.10868411,0.077194646,-0.21394694,0.25739488,0.73548687,0.4620533,-0.060956493,-0.0006439539,90.90057,0.118465446,0.3864583,0.39511716,0.14313444,0.106042095,inf,inf,inf,inf,1,1,1,1,2,0,2,1,3,1,1,1,0
372970106,372968345,87964659,-6.3607016000000005,106.82454369999999,13.49176,-3.388,0.08600132,0.010761263,0.016180344,0.0,-0.018031862,0.0076754875,-0.022268837,0.01830083,0.10868411,0.077194646,-0.21394694,0.404245,0.42322278,0.49485487,-0.060993414,-0.0006439539,90.90057,0.11003648,0.39443505,0.3967727,0.14792687,0.10745337,inf,inf,inf,inf,1,1,1,1,2,0,2,1,3,1,1,1,0
373073180,373071765,87964659,-6.3607016000000005,106.82454369999999,13.484822,-3.3907745,0.09458725,0.010761263,0.016180344,0.0,-0.01601783,0.007624596,-0.023159638,0.024024552,0.10868411,0.077194646,-0.21394694,0.44376123,0.6373999,0.20509839,-0.060780983,-0.0006439539,90.90057,0.11804752,0.3862642,0.3965166,0.14313458,0.10616977,inf,inf,inf,inf,1,1,1,1,2,0,2,1,3,1,1,1,0
373172053,373170700,87964659,-6.3607016000000005,106.82454369999999,13.478654,-3.392727,0.10146755,0.010761263,0.016180344,0.0,-0.017276308,0.007997789,-0.011934864,0.038887583,0.10868411,0.077194646,-0.21394694,0.5463693,0.47596905,0.5015565,-0.06097972,-0.0006439539,90.90057,0.10952641,0.39423767,0.39820948,0.14795652,0.107592545,inf,inf,inf,inf,1,1,1,1,2,0,2,1,3,1,1,1,0
373270951,373269619,87964659,-6.3607016000000005,106.82454369999999,13.473338,-3.3981931,0.11105372,0.010761263,0.016180344,0.0,-0.014923093,0.0013534257,-0.008734632,0.04737479,0.10868411,0.077194646,-0.21394694,0.50861365,0.19806166,0.77092904,-0.060849555,-0.0006439539,90.90057,0.11501922,0.3860701,0.3953984,0.14300242,0.106032066,inf,inf,inf,inf,1,1,1,1,2,0,2,1,3,1,1,1,0
373369868,373368546,87964659,-6.3607016000000005,106.82454369999999,13.4691515,-3.4033928,0.11908078,0.010761263,0.016180344,0.0,-0.014544288,-0.0005189908,0.00063408114,0.059013493,0.10868411,0.077194646,-0.21394694,0.34829926,0.26580903,-0.075531505,-0.061002653,-0.0006439539,90.90057,0.104237124,0.3940358,0.39707017,0.14764172,0.10744909,inf,inf,inf,inf,1,1,1,1,2,0,2,1,3,1,1,1,0
373469223,373467473,87964659,-6.3607016000000005,106.82454369999999,13.462948,-3.4078197,0.12941359,0.010761263,0.016180344,0.0,-0.016947113,-0.0030861632,-0.0048544807,0.057706717,0.10868411,0.077194646,-0.21394694,0.232875,0.28290972,0.012713616,-0.060890935,-0.0006439539,90.90057,0.11152275,0.38587713,0.39427876,0.14300989,0.10589473,inf,inf,inf,inf,1,1,1,1,2,0,2,1,3,1,1,1,0
373567995,373566400,87964659,-6.3607016000000005,106.82454369999999,13.457203,-3.4114726,0.1367689,0.010761263,0.016180344,0.0,-0.018635552,-0.0028982472,0.0034753638,0.06703833,0.10868411,0.077194646,-0.21394694,0.09656567,0.051212132,0.42261863,-0.060960338,-0.0006439539,90.90057,0.10336378,0.393839,0.3984965,0.14768481,0.107588954,inf,inf,inf,inf,1,1,1,1,2,0,2,1,3,1,1,1,0
373671154,373669838,87964659,-6.3607016000000005,106.82454369999999,13.451017,-3.416792,0.14696845,0.010761263,0.016180344,0.0,-0.020441867,-0.0047988254,0.0033081907,0.06938083,0.10868411,0.077194646,-0.21394694,-0.15775831,0.20015296,-0.11330297,-0.060631078,-0.0006439539,90.90057,0.10779399,0.3856815,0.39567956,0.14291833,0.10602989,inf,inf,inf,inf,1,1,1,1,2,0,2,1,3,1,1,1,0
373770092,373768773,87964659,-6.3607016000000005,106.82454369999999,13.445793,-3.4215267,0.15441878,0.010761263,0.016180344,0.0,-0.021668917,-0.004499141,0.010781017,0.076292016,0.10868411,0.077194646,-0.21394694,-0.5380678,0.09519822,0.010980223,-0.060638327,-0.0006439539,90.90057,0.1,0.39363888,0.3973508,0.147718,0.10744811,inf,inf,inf,inf,1,1,1,1,2,0,2,1,3,1,1,1,0
373868952,373867681,87964659,-6.3607016000000005,106.82454369999999,13.443159,-3.424887,0.16178298,0.010761263,0.016180344,0.0,-0.021147432,-0.006267424,0.022370407,0.08645503,0.10868411,0.077194646,-0.21394694,-0.7327527,-0.31557924,0.24149461,-0.0604853,-0.0006439539,90.90057,0.1,0.3854909,0.39456218,0.14295764,0.10589718,inf,inf,inf,inf,1,1,1,1,2,0,2,1,3,1,1,1,0
373972427,373971142,87964659,-6.3607016000000005,106.82454369999999,13.441498,-3.4275787,0.16831496,0.010761263,0.016180344,0.0,-0.020950656,-0.011950999,0.022645839,0.08370696,0.10868411,0.077194646,-0.21394694,-0.31838542,-0.76990575,-0.19792722,-0.06063947,-0.0006439539,90.90057,0.1,0.3934465,0.3987851,0.14757417,0.10759312,inf,inf,inf,inf,1,1,1,1,2,0,2,1,3,1,1,1,0
374071598,374070029,87964659,-6.3607016000000005,106.82454369999999,13.43564,-3.42724,0.17229895,0.010761263,0.016180344,0.0,-0.021976575,-0.012851337,0.016213505,0.07281704,0.10868411,0.077194646,-0.21394694,0.0925832,-0.9508264,-0.36376178,-0.06060711,-0.0006439539,90.90057,0.1,0.3853564,0.39597765,0.14307208,0.10605082,inf,inf,inf,inf,1,1,1,1,2,0,2,1,3,1,1,1,0
374170765,374168956,87964659,-6.3607016000000005,106.82454369999999,13.430399,-3.426791,0.17377503,0.010761263,0.016180344,0.0,-0.022198156,-0.011620439,0.01311077,0.06381739,0.10868411,0.077194646,-0.21394694,-0.23911315,-0.82004887,-0.3361272,-0.060655065,-0.0006439539,90.90057,0.1,0.39331895,0.3976583,0.14758359,0.10747263,inf,inf,inf,inf,1,1,1,1,2,0,2,1,3,1,1,1,0
374273997,374272388,87964659,-6.3607016000000005,106.82454369999999,13.425274,-3.4284048,0.17577262,0.010761263,0.016180344,0.0,-0.021500338,-0.014003648,0.014755285,0.060663942,0.10868411,0.077194646,-0.21394694,0.28413042,-0.47083154,0.116361536,-0.060538914,-0.0006439539,90.90057,0.1,0.38576904,0.39526406,0.14371736,0.10618558,inf,inf,inf,inf,1,1,1,1,2,0,2,1,3,1,1,1,0
374368362,374366810,87964659,-6.3607016000000005,106.82454369999999,13.421069,-3.4300907,0.17654838,0.010761263,0.016180344,0.0,-0.020085627,-0.011836695,0.013316801,0.05402857,0.10868411,0.077194646,-0.21394694,-0.19141269,-0.2770712,-0.3508289,-0.0605495,-0.0006439539,90.90057,0.1,0.39379668,0.39693528,0.14839092,0.10759923,inf,inf,inf,inf,1,1,1,1,2,0,2,1,3,1,1,1,0
374467134,374465762,87964659,-6.3607016000000005,106.82454369999999,13.416986,-3.4323196,0.17798041,0.010761263,0.016180344,0.0,-0.01974306,-0.010441202,0.015429369,0.052131407,0.10868411,0.077194646,-0.21394694,0.029432014,-0.44135088,-0.13243051,-0.060573507,-0.0006439539,90.90057,0.1,0.3855579,0.39667013,0.14350976,0.10630467,inf,inf,inf,inf,1,1,1,1,2,0,2,1,3,1,1,1,0
374570451,374569161,87964659,-6.3607016000000005,106.82454369999999,13.413636,-3.4343996,0.17939587,0.010761263,0.016180344,0.0,-0.017334456,-0.014588228,0.0233777,0.05596197,0.10868411,0.077194646,-0.21394694,-0.20323837,-1.032478,0.017198924,-0.06054325,-0.0006439539,90.90057,0.1,0.39357528,0.39836964,0.14815535,0.10772724,inf,inf,inf,inf,1,1,1,1,2,0,2,1,3,1,1,1,0
374669881,374668088,87964659,-6.3607016000000005,106.82454369999999,13.4097185,-3.4358187,0.18285432,0.010761263,0.016180344,0.0,-0.020697765,-0.012255633,0.026845986,0.057058226,0.10868411,0.077194646,-0.21394694,-0.45050466,-0.438087,-0.16078192,-0.060486518,-0.0006439539,90.90057,0.1,0.3853499,0.39554697,0.14344859,0.10615561,inf,inf,inf,inf,1,1,1,1,2,0,2,1,3,1,1,1,0
374768676,374767015,87964659,-6.3607016000000005,106.82454369999999,13.406022,-3.4369423,0.18493752,0.010761263,0.016180344,0.0,-0.021211179,-0.013773012,0.02580191,0.05258046,0.10868411,0.077194646,-0.21394694,-0.22610247,-0.40701354,0.18984437,-0.060637657,-0.0006439539,90.90057,0.1,0.39335912,0.39722463,0.14809449,0.107572176,inf,inf,inf,inf,1,1,1,1,2,0,2,1,3,1,1,1,0
374872233,374870453,87964659,-6.3607016000000005,106.82454369999999,13.4034195,-3.4390259,0.18408087,0.010761263,0.016180344,0.0,-0.019239549,-0.013119671,3.93003e-05,0.021690365,0.10868411,0.077194646,-0.21394694,0.19015978,0.22048147,-0.11969154,-0.06030646,-0.0006439539,90.90057,0.1,0.38514885,0.39443055,0.14329176,0.10600959,inf,inf,inf,inf,1,1,1,1,2,0,2,1,3,1,1,1,0
374970699,374969366,87964659,-6.3607016000000005,106.82454369999999,13.401312,-3.4409828,0.18294029,0.010761263,0.016180344,0.0,-0.014604553,-0.01082117,0.02119911,0.038525432,0.10868411,0.077194646,-0.21394694,-0.29020673,0.24589553,0.90016836,-0.06084733,-0.0006439539,90.90057,0.1,0.393153,0.3986566,0.14819045,0.107703984,inf,inf,inf,inf,1,1,1,1,2,0,2,1,3,1,1,1,0
375069637,375068299,87964659,-6.3607016000000005,106.82454369999999,13.399944,-3.4386835,0.17925416,0.010761263,0.016180344,0.0,-0.0128342435,-0.012090471,0.033069506,0.042159807,0.10868411,0.077194646,-0.21394694,0.01603498,0.0034030618,-0.031817082,-0.06025755,-0.0006439539,90.90057,0.1,0.38494664,0.39583677,0.1433167,0.10613715,inf,inf,inf,inf,1,1,1,1,2,0,2,1,3,1,1,1,0
375168475,375167221,87964659,-6.3607016000000005,106.82454369999999,13.399164,-3.4360912,0.17569196,0.010761263,0.016180344,0.0,-0.0023547814,-0.0011494152,0.027043752,0.02949946,0.10868411,0.077194646,-0.21394694,0.48470733,-0.12017712,0.2780648,-0.0606323,-0.0006439539,90.90057,0.1,0.39294186,0.3975128,0.14790204,0.107554495,inf,inf,inf,inf,1,1,1,1,2,0,2,1,3,1,1,1,0
375271964,375270644,87964659,-6.3607016000000005,106.82454369999999,13.398453,-3.4308703,0.16886236,0.010761263,0.016180344,0.0,0.006746652,0.0046174824,0.03981249,0.03174584,0.10868411,0.077194646,-0.21394694,1.0901079,-0.42505386,0.3841741,-0.060524873,-0.0006439539,90.90057,0.1,0.3847611,0.394713,0.14312498,0.10599414,inf,inf,inf,inf,1,1,1,1,2,0,2,1,3,1,1,1,0
375371281,375369572,87964659,-6.3607016000000005,106.82454369999999,13.39831,-3.425916,0.16331819,0.010761263,0.016180344,0.0,0.008603233,0.0083663445,0.039243754,0.02339019,0.10868411,0.077194646,-0.21394694,1.6078675,-0.16184798,0.22202168,-0.060402784,-0.0006439539,90.90057,0.1,0.39275095,0.39894313,0.1496389,0.107690014,inf,inf,inf,inf,1,1,1,1,2,0,2,1,3,1,1,1,0
375470302,375468513,87964659,-6.3607016000000005,106.82454369999999,13.396368,-3.4220645,0.15765384,0.010761263,0.016180344,0.0,0.0048054005,0.0017168586,0.05202739,0.028675107,0.10868411,0.077194646,-0.21394694,-1.7081287,-1.1186675,-0.6795502,-0.06060784,-0.0006439539,90.90057,0.1,0.38455874,0.39611763,0.15094127,0.10612532,inf,inf,inf,inf,1,1,1,1,2,0,2,1,3,1,1,1,0
375568772,375567426,87964659,-6.3607016000000005,106.82454369999999,13.39517,-3.418885,0.15620628,0.010761263,0.016180344,0.0,-0.0061769257,0.014688446,0.059702683,0.031662013,0.10868411,0.077194646,-0.21394694,-0.0555146,0.88506365,1.1501641,-0.060130455,-0.0006439539,90.90057,0.1,0.39257714,0.39780113,0.16633035,0.10754629,inf,inf,inf,inf,1,1,1,1,2,0,2,1,3,1,1,1,0
375667667,375666406,87964659,-6.3607016000000005,106.82454369999999,13.390052,-3.4179356,0.15633328,0.010761263,0.016180344,0.0,0.0038809653,0.0153554045,0.07911277,0.048350133,0.10868411,0.077194646,-0.21394694,-0.8808595,1.6321881,0.66207534,-0.05970346,-0.0006439539,90.90057,0.1,0.38435373,0.39500383,0.1707989,0.10599004,inf,inf,inf,inf,1,1,1,1,2,0,2,1,3,1,1,1,0
375771359,375769781,87964659,-6.3607016000000005,106.82454369999999,13.38583,-3.41774,0.15836546,0.010761263,0.016180344,0.0,0.002205226,0.009679366,0.06144813,0.029784005,0.10868411,0.077194646,-0.21394694,0.6206112,-0.65535295,4.3976545,-0.060104925,-0.0006439539,90.90057,0.1,0.39247105,0.39666638,0.19067162,0.10740525,inf,inf,inf,inf,1,1,1,1,2,0,2,1,3,1,1,1,0
375870584,375868732,87964659,-6.3607016000000005,106.82454369999999,13.379302,-3.4187732,0.15707596,0.010761263,0.016180344,0.0,-0.0031139222,-0.0046776114,0.046568166,0.014569212,0.10868411,0.077194646,-0.21394694,0.72696763,-1.3796217,6.6477666,-0.06001191,-0.0006439539,90.90057,0.1,0.38417023,0.39641526,0.19233616,0.10612648,inf,inf,inf,inf,1,1,1,1,2,0,2,1,3,1,1,1,0
375969218,375967643,87964659,-6.3607016000000005,106.82454369999999,13.373998,-3.4202611,0.1566768,0.010761263,0.016180344,0.0,0.0011784906,-0.007322601,0.014805106,-0.016555281,0.10868411,0.077194646,-0.21394694,-0.2946292,-0.110728405,-3.6791553,-0.059979394,-0.0006439539,90.90057,0.1,0.39247,0.39810684,0.21382245,0.10755094,inf,inf,inf,inf,1,1,1,1,2,0,2,1,3,1,1,1,0
376068191,376066559,87964659,-6.3607016000000005,106.82454369999999,13.369496,-3.4208317,0.14458258,0.010761263,0.016180344,0.0,0.0058661075,-0.021783747,-0.10998179,-0.14249031,0.10868411,0.077194646,-0.21394694,-0.6461499,-2.808165,2.3618195,-0.060156394,-0.0006439539,90.90057,0.10215224,0.3840069,0.3953023,0.20914586,0.10599566,inf,inf,inf,inf,1,1,1,1,2,0,2,1,3,1,1,1,0
376171339,376169983,87964659,-6.3607016000000005,106.82454369999999,13.366405,-3.4224544,0.11405092,0.010761263,0.016180344,0.0,0.0011854684,-0.03319277,-0.37811887,-0.4108461,0.10868411,0.077194646,-0.21394694,-0.13418098,0.1208923,-4.188076,-0.06100027,-0.0006439539,90.90057,0.1326839,0.39253196,0.3969731,0.23041336,0.10741539,inf,inf,inf,inf,1,1,1,1,2,0,2,1,3,1,1,1,0
376270378,376268910,87964659,-6.3607016000000005,106.82454369999999,13.362444,-3.4227262,0.0625564,0.010761263,0.016180344,0.0,-0.00329711,-0.03202997,-0.56815106,-0.60061264,0.10868411,0.077194646,-0.21394694,0.36647862,1.0078368,1.2333881,-0.062395055,-0.0006439539,90.90057,0.18417843,0.38385934,0.3941962,0.21991241,0.10586861,inf,inf,inf,inf,1,1,1,1,2,0,2,1,3,1,1,1,0
376369114,376367838,87964659,-6.3607016000000005,106.82454369999999,13.359407,-3.4230595,-0.0014436047,0.010761263,0.016180344,0.0,-0.0012722763,-0.04098397,-0.6299753,-0.6613572,0.10868411,0.077194646,-0.21394694,-0.7830447,-1.8204129,1.8091176,-0.06375505,-0.0006439539,90.90057,0.24817844,0.3926318,0.3984205,0.23982777,0.10756901,inf,inf,inf,inf,1,1,1,1,2,0,2,1,3,1,1,1,0
376468115,376466765,87964659,-6.3607016000000005,106.82454369999999,13.351121,-3.4269438,-0.05841573,0.010761263,0.016180344,0.0,-0.0012369794,-0.03850284,-0.58744776,-0.61062104,0.10868411,0.077194646,-0.21394694,0.6218938,1.2549213,-0.26023734,-0.0651146,-0.0006439539,90.90057,0.30515057,0.38373405,0.3956167,0.22444442,0.10601583,inf,inf,inf,inf,1,1,1,1,2,0,2,1,3,1,1,1,0
376571829,376570189,87964659,-6.3607016000000005,106.82454369999999,13.342898,-3.4319592,-0.11192963,0.010761263,0.016180344,0.0,-0.010138556,-0.04270314,-0.5383786,-0.5546882,0.10868411,0.077194646,-0.21394694,1.9092818,-0.79739267,4.575667,-0.066099346,-0.0006439539,90.90057,0.35866445,0.39268106,0.39728758,0.24237032,0.10743691,inf,inf,inf,inf,1,1,1,1,2,0,2,1,3,1,1,1,0
376670701,376669116,87964659,-6.3607016000000005,106.82454369999999,13.331291,-3.4356844,-0.1621262,0.010761263,0.016180344,0.0,-0.028950557,-0.041213427,-0.5143151,-0.52618986,0.10868411,0.077194646,-0.21394694,-2.162707,-2.0687437,-1.9826425,-0.06599289,-0.0006439539,90.90057,0.40886104,0.38366157,0.39450288,0.22452378,0.10588759,inf,inf,inf,inf,1,1,1,1,2,0,2,1,3,1,1,1,0
376769922,376768043,87964659,-6.3607016000000005,106.82454369999999,13.32091,-3.439053,-0.20928511,0.010761263,0.016180344,0.0,-0.02005902,-0.03796544,-0.4556499,-0.4652429,0.10868411,0.077194646,-0.21394694,1.8494316,1.6795956,0.17544024,-0.0660018,-0.0006439539,90.90057,0.45601994,0.39271808,0.39616203,0.24080375,0.10730511,inf,inf,inf,inf,1,1,1,1,2,0,2,1,3,1,1,1,0
376872906,376871468,87964659,-6.3607016000000005,106.82454369999999,13.307064,-3.4517844,-0.25429493,0.010761263,0.016180344,0.0,-0.03621948,-0.047172517,-0.4335444,-0.44200104,0.10868411,0.077194646,-0.21394694,0.5462204,0.077867694,-4.3898845,-0.066297755,-0.0006439539,90.90057,0.50102973,0.383622,0.39592177,0.22210921,0.1060348,inf,inf,inf,inf,1,1,1,1,2,0,2,1,3,1,1,1,0
376971737,376970405,87964659,-6.3607016000000005,106.82454369999999,13.295052,-3.466248,-0.29450962,0.010761263,0.016180344,0.0,-0.018875705,-0.0567287,-0.367319,-0.37583432,0.10868411,0.077194646,-0.21394694,-0.47012177,-0.79206264,4.7128086,-0.0660115,-0.0006439539,90.90057,0.54124445,0.3927501,0.39760166,0.2367924,0.10746137,inf,inf,inf,inf,1,1,1,1,2,0,2,1,3,1,1,1,0
377070586,377069323,87964659,-6.3607016000000005,106.82454369999999,13.283913,-3.48048,-0.33685374,0.010761263,0.016180344,0.0,-0.02469336,-0.06827945,-0.39297533,-0.40478343,0.10868411,0.077194646,-0.21394694,-0.40162605,0.6049133,-2.770112,-0.06557471,-0.0006439539,90.90057,0.5835886,0.38367105,0.3948245,0.21856338,0.105929315,inf,inf,inf,inf,1,1,1,1,2,0,2,1,3,1,1,1,0
377170089,377168255,87964659,-6.3607016000000005,106.82454369999999,13.275815,-3.4933481,-0.38064283,0.010761263,0.016180344,0.0,-0.014704617,-0.06002485,-0.344641,-0.36234692,0.10868411,0.077194646,-0.21394694,-0.6682049,0.9440529,1.0025265,-0.0653479,-0.0006439539,90.90057,0.6273776,0.39287034,0.3964936,0.23186821,0.107352555,inf,inf,inf,inf,1,1,1,1,2,0,2,1,3,1,1,1,0
377268805,377267177,87964659,-6.3607016000000005,106.82454369999999,13.27117,-3.495672,-0.42318898,0.010761263,0.016180344,0.0,-0.00033459032,-0.039712507,-0.2992986,-0.32702723,0.10868411,0.077194646,-0.21394694,1.3579336,1.3167098,-2.528892,-0.06502316,-0.0006439539,90.90057,0.6699238,0.3836436,0.39625022,0.21380048,0.10608017,inf,inf,inf,inf,1,1,1,1,2,0,2,1,3,1,1,1,0
377372271,377370601,87964659,-6.3607016000000005,106.82454369999999,13.269347,-3.4951282,-0.46040633,0.010761263,0.016180344,0.0,0.010778939,-0.034299538,-0.2100061,-0.24474737,0.10868411,0.077194646,-0.21394694,-0.022768302,-0.3487857,3.1278944,-0.06486944,-0.0006439539,90.90057,0.70714116,0.39285633,0.39794013,0.22586043,0.107511275,inf,inf,inf,inf,1,1,1,1,2,0,2,1,3,1,1,1,0
377470896,377469529,87964659,-6.3607016000000005,106.82454369999999,13.262902,-3.5027425,-0.49643698,0.010761263,0.016180344,0.0,0.0038699128,-0.023812236,-0.22965719,-0.27512583,0.10868411,0.077194646,-0.21394694,-0.15200768,0.232596,-4.5191627,-0.064409085,-0.0006439539,90.90057,0.7431718,0.38363352,0.39514604,0.2087386,0.10596138,inf,inf,inf,inf,1,1,1,1,2,0,2,1,3,1,1,1,0
377569893,377568459,87964659,-6.3607016000000005,106.82454369999999,13.2573,-3.5113587,-0.53302187,0.010761263,0.016180344,0.0,0.016679687,-0.015914626,-0.21054783,-0.266027,0.10868411,0.077194646,-0.21394694,-0.21536897,0.18676749,1.5934618,-0.06373456,-0.0006439539,90.90057,0.77975667,0.39284116,0.3968158,0.21973833,0.10738594,inf,inf,inf,inf,1,1,1,1,2,0,2,1,3,1,1,1,0
377673504,377671886,87964659,-6.3607016000000005,106.82454369999999,13.251446,-3.5148716,-0.57344085,0.010761263,0.016180344,0.0,0.018809488,-0.016857725,-0.2222793,-0.2896706,0.10868411,0.077194646,-0.21394694,1.2329899,1.9850017,-1.4962251,-0.06300364,-0.0006439539,90.90057,0.82017565,0.38363114,0.3940402,0.20363998,0.1058403,inf,inf,inf,inf,1,1,1,1,2,0,2,1,3,1,1,1,0
377767617,377766338,87964659,-6.3607016000000005,106.82454369999999,13.247448,-3.516412,-0.60929847,0.010761263,0.016180344,0.0,0.01652007,-0.00079567026,-0.21502005,-0.28977415,0.10868411,0.077194646,-0.21394694,-2.077989,1.1557373,-2.2472231,-0.062682346,-0.0006439539,90.90057,0.8560333,0.39282826,0.39826083,0.2137099,0.10754345,inf,inf,inf,inf,1,1,1,1,2,0,2,1,3,1,1,1,0
377871462,377869742,87964659,-6.3607016000000005,106.82454369999999,13.241872,-3.502558,-0.6480374,0.010761263,0.016180344,0.0,0.024141623,0.016164685,-0.18013406,-0.26363808,0.10868411,0.077194646,-0.21394694,-0.66324997,-0.32842693,2.665542,-0.06246268,-0.0006439539,90.90057,0.8947722,0.38430902,0.39584517,0.20045197,0.10624236,inf,inf,inf,inf,1,1,1,1,2,0,2,1,3,1,1,1,0
377965909,377964170,87964659,-6.3607016000000005,106.82454369999999,13.238033,-3.4874737,-0.6823643,0.010761263,0.016180344,0.0,0.015861694,0.033576436,-0.2669096,-0.3551402,0.10868411,0.077194646,-0.21394694,-1.0747222,0.68371964,-6.101827,-0.06214676,-0.0006439539,90.90057,0.9290991,0.39265797,0.39685068,0.2088545,0.10747006,inf,inf,inf,inf,1,1,1,1,2,0,2,1,3,1,1,1,0
378069367,378067590,87964659,-6.3607016000000005,106.82454369999999,13.232823,-3.4726772,-0.73743206,0.010761263,0.016180344,0.0,0.02211013,0.045299508,-0.40076828,-0.4985584,0.10868411,0.077194646,-0.21394694,-1.1671796,0.32817405,-5.297208,-0.061976284,-0.0006439539,90.90057,0.98416686,0.38441378,0.39476815,0.19554868,0.10613349,inf,inf,inf,inf,1,1,1,1,2,0,2,1,3,1,1,1,0
378172649,378171029,87964659,-6.3607016000000005,106.82454369999999,13.230493,-3.4611652,-0.7957856,0.010761263,0.016180344,0.0,0.029627642,0.04701889,-0.4047731,-0.5075484,0.10868411,0.077194646,-0.21394694,-0.016914189,-0.076763414,-1.4516814,-0.06277905,-0.0006439539,90.90057,1.0425204,0.39372173,0.39643833,0.20418955,0.10755172,inf,inf,inf,inf,1,1,1,1,2,0,2,1,3,1,1,1,0
378271287,378269943,87964659,-6.3607016000000005,106.82454369999999,13.227763,-3.438079,-0.85189503,0.010761263,0.016180344,0.0,0.03935601,0.052521177,-0.36287093,-0.47099787,0.10868411,0.077194646,-0.21394694,-0.1784341,-1.8868456,4.892297,-0.06360868,-0.0006439539,90.90057,1.0986298,0.38710052,0.3975434,0.19650954,0.107158445,inf,inf,inf,inf,1,1,1,1,2,0,2,1,3,1,1,1,0
378370188,378368870,87964659,-6.3607016000000005,106.82454369999999,13.227697,-3.4172204,-0.9049505,0.010761263,0.016180344,0.0,0.039188724,0.06458392,-0.4352895,-0.5444178,0.10868411,0.077194646,-0.21394694,-0.48103136,1.1994977,-3.872914,-0.06417448,-0.0006439539,90.90057,1.1516854,0.39687282,0.39928064,0.20475757,0.10857829,inf,inf,inf,inf,1,1,1,1,2,0,2,1,3,1,1,1,0
378469254,378467798,87964659,-6.3607016000000005,106.82454369999999,13.232466,-3.405731,-0.96609,0.010761263,0.016180344,0.0,0.06112172,0.0569774,-0.38994396,-0.50691444,0.10868411,0.077194646,-0.21394694,-0.4481155,-0.3585279,1.5337056,-0.06509152,-0.0006439539,90.90057,1.2128248,0.38688338,0.39637923,0.19058374,0.10692966,inf,inf,inf,inf,1,1,1,1,2,0,2,1,3,1,1,1,0
378568370,378566727,87964659,-6.3607016000000005,106.82454369999999,13.239747,-3.3985562,-1.0223919,0.010761263,0.016180344,0.0,0.066188775,0.032415193,-0.37321192,-0.4946317,0.10868411,0.077194646,-0.21394694,1.0587211,-2.5199175,2.9418595,-0.06568235,-0.0006439539,90.90057,1.2691268,0.3964938,0.3980899,0.19823655,0.10834175,inf,inf,inf,inf,1,1,1,1,2,0,2,1,3,1,1,1,0
378671822,378670156,87964659,-6.3607016000000005,106.82454369999999,13.247648,-3.3843129,-1.0747889,0.010761263,0.016180344,0.0,0.06795301,0.03519567,-0.35456574,-0.4778837,0.10868411,0.077194646,-0.21394694,-1.1129923,0.6059311,-4.941503,-0.06657646,-0.0006439539,90.90057,1.3215238,0.3882865,0.39859104,0.1883243,0.10751312,inf,inf,inf,inf,1,1,1,1,2,0,2,1,3,1,1,1,0
378770532,378769077,87964659,-6.3607016000000005,106.82454369999999,13.255826,-3.3703105,-1.1214452,0.010761263,0.016180344,0.0,0.08153517,0.034080535,-0.34278148,-0.46465176,0.10868411,0.077194646,-0.21394694,-0.5129328,0.530821,2.9343586,-0.06722881,-0.0006439539,90.90057,1.36818,0.39802775,0.40034002,0.19558574,0.108925365,inf,inf,inf,inf,1,1,1,1,2,0,2,1,3,1,1,1,0
378869366,378868004,87964659,-6.3607016000000005,106.82454369999999,13.261671,-3.3585963,-1.1778708,0.010761263,0.016180344,0.0,0.08170951,0.017101953,-0.3704782,-0.4994329,0.10868411,0.077194646,-0.21394694,0.9171065,0.16670297,-0.67386293,-0.06752565,-0.0006439539,90.90057,1.4246056,0.38799435,0.3973895,0.18296365,0.107245214,inf,inf,inf,inf,1,1,1,1,2,0,2,1,3,1,1,1,0
378968271,378966932,87964659,-6.3607016000000005,106.82454369999999,13.26774,-3.3500576,-1.2317895,0.010761263,0.016180344,0.0,0.070620045,0.010363854,-0.3653328,-0.4972792,0.10868411,0.077194646,-0.21394694,-0.5068661,0.22395864,-1.8128221,-0.068283655,-0.0006439539,90.90057,1.4785243,0.39756203,0.39911854,0.18976441,0.108652726,inf,inf,inf,inf,1,1,1,1,2,0,2,1,3,1,1,1,0
379071994,379070357,87964659,-6.3607016000000005,106.82454369999999,13.281516,-3.3388274,-1.2911466,0.010761263,0.016180344,0.0,0.078241706,0.006717997,-0.34861198,-0.48734674,0.10868411,0.077194646,-0.21394694,-0.50052553,-1.1237088,3.947519,-0.085067146,-0.015291217,90.90057,1.5378815,0.38774148,0.39619526,0.17839156,0.106987655,inf,inf,inf,inf,1,1,1,1,2,0,2,1,4,1,1,1,0
379170939,379169285,87964659,-6.3607016000000005,106.82454369999999,13.295843,-3.3300552,-1.3439633,0.010761263,0.016180344,0.0,0.08218372,-0.0020936488,-0.34937268,-0.49031252,0.10868411,0.077194646,-0.21394694,-0.15635428,0.13777554,0.2222649,-0.085755914,-0.015291217,90.90057,1.5906981,0.39710462,0.4004926,0.18548852,0.10867795,inf,inf,inf,inf,1,1,1,1,2,0,2,1,4,1,1,1,0
379269880,379268212,87964659,-6.3607016000000005,106.82454369999999,13.309446,-3.3196735,-1.4066657,0.010761263,0.016180344,0.0,0.07361356,-0.0059467214,-0.37982246,-0.53112596,0.10868411,0.077194646,-0.21394694,-2.065475,2.3910844,-3.3735623,-0.08440901,-0.015291217,90.90057,1.6534005,0.38757718,0.39755762,0.17571801,0.10701892,inf,inf,inf,inf,1,1,1,1,2,0,2,1,4,1,1,1,0
379368732,379367158,87964659,-6.3607016000000005,106.82454369999999,13.322057,-3.3121183,-1.4662389,0.010761263,0.016180344,0.0,0.08424039,-0.017385725,-0.39850143,-0.5549496,0.10868411,0.077194646,-0.21394694,0.14973308,0.09346919,3.5326147,-0.081973694,-0.015291217,90.90057,1.7129737,0.39672756,0.39927322,0.18331961,0.1084251,inf,inf,inf,inf,1,1,1,1,2,0,2,1,4,1,1,1,0
379471939,379470567,87964659,-6.3607016000000005,106.82454369999999,13.334414,-3.3034568,-1.5386544,0.010761263,0.016180344,0.0,0.07653088,-0.017758416,-0.52427536,-0.68731105,0.10868411,0.077194646,-0.21394694,-0.3548176,3.348912,-0.79580504,-0.07893831,-0.015291217,90.90057,1.7853893,0.387415,0.3963648,0.17450233,0.10678082,inf,inf,inf,inf,1,1,1,1,2,0,2,1,4,1,1,1,0
379571086,379569492,87964659,-6.3607016000000005,106.82454369999999,13.345778,-3.2970493,-1.6072446,0.010761263,0.016180344,0.0,0.072693415,-0.030740751,-0.49516833,-0.658135,0.10868411,0.077194646,-0.21394694,1.5906118,-0.9401838,1.498368,-0.077733435,-0.015291217,90.90057,1.8539795,0.3963913,0.3980535,0.1825465,0.10818046,inf,inf,inf,inf,1,1,1,1,2,0,2,1,4,1,1,1,0
379669766,379668420,87964659,-6.3607016000000005,106.82454369999999,13.354419,-3.2875385,-1.672763,0.010761263,0.016180344,0.0,0.061328277,-0.035793558,-0.44668806,-0.6098955,0.10868411,0.077194646,-0.21394694,-0.8712703,-1.756517,4.779183,-0.07754393,-0.015291217,90.90057,1.9194978,0.38720942,0.3977161,0.17400075,0.10681479,inf,inf,inf,inf,1,1,1,1,2,0,2,1,4,1,1,1,0
379769024,379767348,87964659,-6.3607016000000005,106.82454369999999,13.3613405,-3.2798493,-1.7295625,0.010761263,0.016180344,0.0,0.047386218,-0.04487692,-0.43293497,-0.59059006,0.10868411,0.077194646,-0.21394694,-1.6932645,0.027315574,-3.6832192,-0.07794625,-0.015291217,90.90057,1.9762974,0.396032,0.3994285,0.18203746,0.10822384,inf,inf,inf,inf,1,1,1,1,2,0,2,1,4,1,1,1,0
379867923,379866293,87964659,-6.3607016000000005,106.82454369999999,13.366099,-3.2687252,-1.7857565,0.010761263,0.016180344,0.0,0.04854907,-0.040981174,-0.40738097,-0.56251806,0.10868411,0.077194646,-0.21394694,0.4778699,0.6979607,1.7257437,-0.078788795,-0.015291217,90.90057,2.0324912,0.38709983,0.3965259,0.1737242,0.10659711,inf,inf,inf,inf,1,1,1,1,2,0,2,1,4,1,1,1,0
379971538,379969700,87964659,-6.3607016000000005,106.82454369999999,13.369899,-3.2610743,-1.840445,0.010761263,0.016180344,0.0,0.032248735,-0.06055203,-0.4053812,-0.5551877,0.10868411,0.077194646,-0.21394694,0.67461073,-1.5613562,3.2316625,-0.07931899,-0.015291217,90.90057,2.08718,0.39581096,0.39821252,0.18181857,0.10800039,inf,inf,inf,inf,1,1,1,1,2,0,2,1,4,1,1,1,0
380070260,380068639,87964659,-6.3607016000000005,106.82454369999999,13.364845,-3.2474062,-1.8976083,0.010761263,0.016180344,0.0,0.008877928,-0.056577094,-0.41883534,-0.56822383,0.10868411,0.077194646,-0.21394694,-2.2078543,1.2938657,-2.569929,-0.07967901,-0.015291217,90.90057,2.1443431,0.38779265,0.3983597,0.17506869,0.1069685,inf,inf,inf,inf,1,1,1,1,2,0,2,1,4,1,1,1,0
380168860,380167555,87964659,-6.3607016000000005,106.82454369999999,13.358879,-3.23689,-1.9519134,0.010761263,0.016180344,0.0,0.01349499,-0.055776075,-0.42889813,-0.57460356,0.10868411,0.077194646,-0.21394694,0.6435471,1.6936576,1.5503435,-0.07985513,-0.015291217,90.90057,2.1986482,0.39654642,0.40007558,0.18320633,0.10837666,inf,inf,inf,inf,1,1,1,1,2,0,2,1,4,1,1,1,0
380268063,380266483,87964659,-6.3607016000000005,106.82454369999999,13.354037,-3.2315342,-2.0146644,0.010761263,0.016180344,0.0,0.006400633,-0.079950854,-0.4973109,-0.64589375,0.10868411,0.077194646,-0.21394694,1.4166921,-1.3923646,-1.917144,-0.079056375,-0.015291217,90.90057,2.2613993,0.38794163,0.39729744,0.17517377,0.1068347,inf,inf,inf,inf,1,1,1,1,2,0,2,1,4,1,1,1,0
380371350,380369909,87964659,-6.3607016000000005,106.82454369999999,13.350739,-3.231691,-2.0893145,0.010761263,0.016180344,0.0,0.0068168314,-0.088552125,-0.6681916,-0.8150569,0.10868411,0.077194646,-0.21394694,0.15507396,-0.56432503,0.98715746,-0.07764975,-0.015291217,90.90057,2.3360493,0.39665127,0.39899972,0.18321627,0.10823863,inf,inf,inf,inf,1,1,1,1,2,0,2,1,4,1,1,0,0
380470302,380468836,87964659,-6.3607016000000005,106.82454369999999,13.349765,-3.2294111,-2.1763,0.010761263,0.016180344,0.0,0.0077684303,-0.09437303,-0.76713765,-0.9139257,0.10868411,0.077194646,-0.21394694,0.37743017,1.674002,-3.7514737,-0.07685518,-0.015291217,90.90057,2.423035,0.3877468,0.396085,0.1746948,0.10659358,inf,inf,inf,inf,1,1,1,1,2,0,2,1,4,1,1,0,0
380569358,380567764,87964659,-6.3607016000000005,106.82454369999999,13.350357,-3.2290256,-2.2659404,0.010761263,0.016180344,0.0,0.007615101,-0.10380192,-0.8254725,-0.96756077,0.10868411,0.077194646,-0.21394694,-0.84845394,-0.748125,0.38452494,-0.07667129,-0.015291217,90.90057,2.5126753,0.3963725,0.40035385,0.1827565,0.10828089,inf,inf,inf,inf,1,1,1,1,2,0,2,1,4,1,1,0,0
380668036,380666691,87964659,-6.3607016000000005,106.82454369999999,13.354739,-3.2400277,-2.3604958,0.010761263,0.016180344,0.0,0.020814776,-0.11432977,-0.8943459,-1.0298729,0.10868411,0.077194646,-0.21394694,0.29963192,2.3432093,-0.9042144,-0.07661946,-0.015291217,90.90057,2.6072307,0.38760966,0.39742726,0.17423116,0.10665279,inf,inf,inf,inf,1,1,1,1,2,0,2,1,4,1,1,0,0
380771574,380770122,87964659,-6.3607016000000005,106.82454369999999,13.360229,-3.255402,-2.456736,0.010761263,0.016180344,0.0,0.02775734,-0.13547477,-0.87112373,-0.99602747,0.10868411,0.077194646,-0.21394694,1.947917,-1.4487562,2.8833833,-0.07730132,-0.015291217,90.90057,2.703471,0.39617836,0.39912733,0.18185823,0.108061634,inf,inf,inf,inf,1,1,1,1,2,0,2,1,4,1,1,0,0
380870412,380869050,87964659,-6.3607016000000005,106.82454369999999,13.365982,-3.2740016,-2.541355,0.010761263,0.016180344,0.0,0.025650043,-0.15097943,-0.8160922,-0.9281213,0.10868411,0.077194646,-0.21394694,-0.044212036,-2.0662336,-0.10149264,-0.07814628,-0.015291217,90.90057,2.7880898,0.3874737,0.39623576,0.1730583,0.106448084,inf,inf,inf,inf,1,1,1,1,2,0,2,1,4,1,1,0,0
380969328,380967972,87964659,-6.3607016000000005,106.82454369999999,13.371841,-3.2938294,-2.6256957,0.010761263,0.016180344,0.0,0.027091578,-0.14577755,-0.8811531,-0.98215437,0.10868411,0.077194646,-0.21394694,0.54396415,1.2653031,-0.6690421,-0.07833374,-0.015291217,90.90057,2.8724306,0.39599285,0.4004984,0.18021956,0.10813644,inf,inf,inf,inf,1,1,1,1,2,0,2,1,4,1,1,0,0
381068584,381066900,87964659,-6.3607016000000005,106.82454369999999,13.37118,-3.3056934,-2.721287,0.010761263,0.016180344,0.0,0.0142450025,-0.14409368,-0.9117426,-1.0093228,0.10868411,0.077194646,-0.21394694,-1.9535991,-0.73495376,0.7697896,-0.07847653,-0.015291217,90.90057,2.9680219,0.38732785,0.39757738,0.1717067,0.1065218,inf,inf,inf,inf,1,1,1,1,2,0,2,1,4,1,1,0,0
381171977,381170324,87964659,-6.3607016000000005,106.82454369999999,13.369512,-3.3173156,-2.8205917,0.010761263,0.016180344,0.0,0.013970486,-0.13647602,-0.8900723,-0.98346883,0.10868411,0.077194646,-0.21394694,-0.7766557,1.1928469,-3.5137792,-0.07897769,-0.015291217,90.90057,3.0673265,0.39580858,0.3992692,0.17877531,0.10793073,inf,inf,inf,inf,1,1,1,1,2,0,2,1,4,1,1,0,0
381271022,381269253,87964659,-6.3607016000000005,106.82454369999999,13.3649235,-3.328186,-2.911277,0.010761263,0.016180344,0.0,0.014251122,-0.12826769,-0.859063,-0.9478526,0.10868411,0.077194646,-0.21394694,1.7623477,1.7756566,0.3759371,-0.079405196,-0.015291217,90.90057,3.158012,0.38718578,0.3963915,0.17015216,0.106331974,inf,inf,inf,inf,1,1,1,1,2,0,2,1,4,1,1,0,0
381374108,381372677,87964659,-6.3607016000000005,106.82454369999999,13.361336,-3.340288,-2.9952753,0.010761263,0.016180344,0.0,0.008457779,-0.1286558,-0.7315164,-0.8122037,0.10868411,0.077194646,-0.21394694,-0.41862342,-1.1836542,3.2574515,-0.07946875,-0.015291217,90.90057,3.24201,0.3956315,0.39805928,0.17684898,0.107736625,inf,inf,inf,inf,1,1,1,1,2,0,2,1,4,1,1,0,0
381468755,381467108,87964659,-6.3607016000000005,106.82454369999999,13.356355,-3.3473752,-3.0659547,0.010761263,0.016180344,0.0,0.0138580445,-0.11581481,-0.5995333,-0.67916614,0.10868411,0.077194646,-0.21394694,1.0633329,0.40830028,0.47926113,-0.07993396,-0.015291217,90.90057,3.3126895,0.3870366,0.3952066,0.16827823,0.10614806,inf,inf,inf,inf,1,1,1,1,2,0,2,1,4,1,1,0,0
381571868,381570533,87964659,-6.3607016000000005,106.82454369999999,13.352777,-3.3558745,-3.1277966,0.010761263,0.016180344,0.0,0.011687922,-0.12046188,-0.48142833,-0.55889523,0.10868411,0.077194646,-0.21394694,0.11819447,-1.9479414,8.18805,-0.07994295,-0.015291217,90.90057,3.3745315,0.39544818,0.39944464,0.17425644,0.10783649,inf,inf,inf,inf,1,1,1,1,2,0,2,1,4,1,1,0,0
381671002,381669461,87964659,-6.3607016000000005,106.82454369999999,13.337525,-3.363048,-3.1969025,0.010761263,0.016180344,0.0,-0.0034238766,-0.10883437,-0.48848954,-0.5787233,0.10868411,0.077194646,-0.21394694,-1.2604207,-1.2370534,-0.1970333,-0.07842542,-0.015291217,90.90057,3.4436374,0.38690895,0.39656958,0.1659717,0.10624808,inf,inf,inf,inf,1,1,1,1,2,0,2,1,4,1,1,0,0
381769756,381768402,87964659,-6.3607016000000005,106.82454369999999,13.3228245,-3.3706112,-3.265457,0.010761263,0.016180344,0.0,-0.0017411257,-0.09025366,-0.51758766,-0.61648375,0.10868411,0.077194646,-0.21394694,-0.029314885,1.8529472,-1.0195841,-0.077163,-0.015291217,90.90057,3.5121918,0.3952893,0.39824075,0.17208654,0.107656665,inf,inf,inf,inf,1,1,1,1,2,0,2,1,4,1,1,0,0
381873507,381871821,87964659,-6.3607016000000005,106.82454369999999,13.310982,-3.3708522,-3.351621,0.010761263,0.016180344,0.0,-0.0026758173,-0.09219204,-0.5369224,-0.65598977,0.10868411,0.077194646,-0.21394694,0.68238103,-0.6764661,1.6882564,-0.076179035,-0.015291217,90.90057,3.5983558,0.38677222,0.39539838,0.16431573,0.106080204,inf,inf,inf,inf,1,1,1,1,2,0,2,1,4,1,1,0,0
381967904,381966252,87964659,-6.3607016000000005,106.82454369999999,13.302173,-3.3703637,-3.4289155,0.010761263,0.016180344,0.0,-0.008476281,-0.08398082,-0.5348071,-0.666338,0.10868411,0.077194646,-0.21394694,-0.27675033,-1.6605593,-1.0817993,-0.075520314,-0.015291217,90.90057,3.6756504,0.39512908,0.3996355,0.17052181,0.10777145,inf,inf,inf,inf,1,1,1,1,2,0,2,1,4,1,1,0,0
382071122,382069670,87964659,-6.3607016000000005,106.82454369999999,13.299608,-3.3736038,-3.5135276,0.010761263,0.016180344,0.0,0.009461165,-0.065577224,-0.5355976,-0.68120414,0.10868411,0.077194646,-0.21394694,0.54817086,0.64009595,3.2682898,-0.07479347,-0.015291217,90.90057,3.7602625,0.38664263,0.39676148,0.16269441,0.10619038,inf,inf,inf,inf,1,1,1,1,2,0,2,1,4,1,1,0,0
382169934,382168629,87964659,-6.3607016000000005,106.82454369999999,13.300203,-3.3781667,-3.586171,0.010761263,0.016180344,0.0,0.016873917,-0.06459468,-0.50796556,-0.65867025,0.10868411,0.077194646,-0.21394694,-0.31439385,-0.050689343,-0.313077,-0.07393044,-0.015291217,90.90057,3.8329058,0.39497602,0.3984286,0.16832241,0.107602015,inf,inf,inf,inf,1,1,1,1,2,0,2,1,4,1,1,0,0
382268961,382267526,87964659,-6.3607016000000005,106.82454369999999,13.299646,-3.3811052,-3.6622846,0.010761263,0.016180344,0.0,0.025364785,-0.074078,-0.48394012,-0.6449222,0.10868411,0.077194646,-0.21394694,0.4322217,-1.4007859,0.70796376,-0.07345332,-0.015291217,90.90057,3.9090195,0.38652027,0.39558718,0.16098633,0.10603298,inf,inf,inf,inf,1,1,1,1,2,0,2,1,4,1,1,0,0
382368213,382366455,87964659,-6.3607016000000005,106.82454369999999,13.300522,-3.3849313,-3.7321215,0.010761263,0.016180344,0.0,0.03131854,-0.055459283,-0.52497745,-0.6886527,0.10868411,0.077194646,-0.21394694,-2.299539,1.0341748,-2.7423377,-0.07289764,-0.015291217,90.90057,3.9788563,0.39482996,0.39724115,0.16649905,0.10744192,inf,inf,inf,inf,1,1,1,1,2,0,2,1,4,1,1,0,0
382471576,382469934,87964659,-6.3607016000000005,106.82454369999999,13.303514,-3.3862956,-3.8073123,0.010761263,0.016180344,0.0,0.04969602,-0.058542266,-0.5092881,-0.6763764,0.10868411,0.077194646,-0.21394694,0.46336266,0.40359262,0.5632434,-0.0728897,-0.015291217,90.90057,4.054047,0.38640466,0.39695996,0.15922938,0.10615353,inf,inf,inf,inf,1,1,1,1,2,0,2,1,4,1,1,0,0
382570183,382568808,87964659,-6.3607016000000005,106.82454369999999,13.307902,-3.388111,-3.8771458,0.010761263,0.016180344,0.0,0.046328757,-0.053964447,-0.5846345,-0.7499404,0.10868411,0.077194646,-0.21394694,-0.17271112,1.7949276,-4.36051,-0.07308948,-0.015291217,90.90057,4.1238804,0.3946928,0.3986333,0.1648169,0.10756987,inf,inf,inf,inf,1,1,1,1,2,0,2,1,4,1,1,0,0
382669104,382667736,87964659,-6.3607016000000005,106.82454369999999,13.316157,-3.397604,-3.9563093,0.010761263,0.016180344,0.0,0.053895578,-0.062564366,-0.70707023,-0.8711893,0.10868411,0.077194646,-0.21394694,-1.8320643,-0.39231032,-2.4803066,-0.07282787,-0.015291217,90.90057,4.203044,0.38628086,0.39579996,0.15776263,0.106007524,inf,inf,inf,inf,1,1,1,1,2,0,2,1,4,1,1,0,0
382767961,382766664,87964659,-6.3607016000000005,106.82454369999999,13.325192,-3.4084682,-4.048105,0.010761263,0.016180344,0.0,0.057317354,-0.055389076,-0.9308438,-1.0876817,0.10868411,0.077194646,-0.21394694,-1.9270372,0.07652595,-1.689597,-0.07278454,-0.015291217,90.90057,4.2948394,0.39454976,0.397452,0.16344254,0.10741892,inf,inf,inf,inf,1,1,1,1,2,0,2,1,4,1,1,0,0
382871571,382870090,87964659,-6.3607016000000005,106.82454369999999,13.328634,-3.4074087,-4.152434,0.010761263,0.016180344,0.0,0.054252107,-0.046555813,-1.0717977,-1.2126958,0.10868411,0.077194646,-0.21394694,-1.1991484,0.3079338,-1.5512494,-0.07337899,-0.015291217,90.90057,4.3991685,0.38617566,0.39464098,0.15703893,0.10586401,inf,inf,inf,inf,1,1,1,1,2,0,2,1,4,1,1,0,0
382970490,382969017,87964659,-6.3607016000000005,106.82454369999999,13.331356,-3.4045293,-4.2578764,0.010761263,0.016180344,0.0,0.06058384,-0.040780436,-1.0819969,-1.2056702,0.10868411,0.077194646,-0.21394694,0.02279802,-0.41008073,4.324211,-0.07442204,-0.015291217,90.90057,4.504611,0.39443398,0.39885437,0.16258346,0.10755606,inf,inf,inf,inf,1,1,1,1,2,0,2,1,4,1,1,0,0
383069658,383067945,87964659,-6.3607016000000005,106.82454369999999,13.332847,-3.410048,-4.3558307,0.010761263,0.016180344,0.0,0.052240763,-0.04126858,-1.0861162,-1.1877995,0.10868411,0.077194646,-0.21394694,-0.058103878,1.3672538,-4.4630866,-0.07527894,-0.015291217,90.90057,4.6025653,0.38609228,0.3960277,0.15602496,0.10599949,inf,inf,inf,inf,1,1,1,1,2,0,2,1,4,1,1,0,0
383168567,383166874,87964659,-6.3607016000000005,106.82454369999999,13.334913,-3.417145,-4.45329,0.010761263,0.016180344,0.0,0.048669916,-0.033482756,-1.0714935,-1.1545185,0.10868411,0.077194646,-0.21394694,-0.62805134,0.76687235,0.7916474,-0.075838424,-0.015291217,90.90057,4.7000246,0.39433184,0.39768755,0.16095024,0.107415386,inf,inf,inf,inf,1,1,1,1,2,0,2,1,4,1,1,0,0
383271891,383270299,87964659,-6.3607016000000005,106.82454369999999,13.340072,-3.4196029,-4.558561,0.010761263,0.016180344,0.0,0.04909633,-0.046209615,-1.0439394,-1.1140355,0.10868411,0.077194646,-0.21394694,-0.02205233,-1.1841348,2.9811337,-0.07633003,-0.015291217,90.90057,4.8052955,0.38614336,0.39493895,0.15442753,0.10590235,inf,inf,inf,inf,1,1,1,1,2,0,2,1,4,1,1,0,0
383370652,383369227,87964659,-6.3607016000000005,106.82454369999999,13.345737,-3.4214118,-4.6571565,0.010761263,0.016180344,0.0,0.043796867,-0.02883685,-1.0629702,-1.1215565,0.10868411,0.077194646,-0.21394694,-1.0819948,1.3360003,-5.812354,-0.076740704,-0.015291217,90.90057,4.903891,0.39437205,0.39915925,0.1593717,0.10759694,inf,inf,inf,inf,1,1,1,1,2,0,2,1,4,1,1,0,0
383469451,383468159,87964659,-6.3607016000000005,106.82454369999999,13.35196,-3.4226863,-4.7589993,0.010761263,0.016180344,0.0,0.050349202,-0.020548126,-1.0540683,-1.1052086,0.10868411,0.077194646,-0.21394694,0.0035609498,0.6842288,2.5947526,-0.07672254,-0.015291217,90.90057,5.005734,0.38628042,0.39645973,0.15298565,0.10611751,inf,inf,inf,inf,1,1,1,1,2,0,2,1,4,1,1,0,0
383568438,383567084,87964659,-6.3607016000000005,106.82454369999999,13.358292,-3.424194,-4.862588,0.010761263,0.016180344,0.0,0.047369376,-0.034794852,-1.051531,-1.0965273,0.10868411,0.077194646,-0.21394694,0.90808827,-1.2628316,1.3048933,-0.076433815,-0.015291217,90.90057,5.1093225,0.39450756,0.39812392,0.15800785,0.107533924,inf,inf,inf,inf,1,1,1,1,2,0,2,1,4,1,1,0,0
383672133,383670509,87964659,-6.3607016000000005,106.82454369999999,13.368634,-3.4304965,-4.968399,0.010761263,0.016180344,0.0,0.047143683,-0.020409852,-1.0669376,-1.1045226,0.10868411,0.077194646,-0.21394694,-0.28113872,1.6379731,-3.4081042,-0.07652361,-0.015291217,90.90057,5.2151337,0.3862399,0.39530188,0.15165022,0.105974674,inf,inf,inf,inf,1,1,1,1,2,0,2,1,4,1,1,0,0
383771290,383769445,87964659,-6.3607016000000005,106.82454369999999,13.378837,-3.437204,-5.0672297,0.010761263,0.016180344,0.0,0.05097317,-0.022466192,-1.0302203,-1.0589261,0.10868411,0.077194646,-0.21394694,-0.14048451,-0.9104158,6.380414,-0.07661057,-0.015291217,90.90057,5.3139644,0.39444077,0.39696267,0.15645707,0.1073899,inf,inf,inf,inf,1,1,1,1,2,0,2,1,4,1,1,0,0
383870040,383868366,87964659,-6.3607016000000005,106.82454369999999,13.388216,-3.4385443,-5.160518,0.010761263,0.016180344,0.0,0.049648546,-0.023371894,-1.0467114,-1.0640346,0.10868411,0.077194646,-0.21394694,-0.51066786,-0.23089011,-2.8235857,-0.07633029,-0.015291217,90.90057,5.407253,0.38615823,0.3966938,0.15022457,0.10610908,inf,inf,inf,inf,1,1,1,1,2,0,2,1,4,1,1,0,0
383968683,383967294,87964659,-6.3607016000000005,106.82454369999999,13.396485,-3.4391017,-5.2546096,0.010761263,0.016180344,0.0,0.051133905,-0.004393002,-1.0626662,-1.0694469,0.10868411,0.077194646,-0.21394694,-0.116412304,2.315542,-2.0864413,-0.07621797,-0.015291217,90.90057,5.501344,0.39433113,0.39836603,0.15492657,0.10752892,inf,inf,inf,inf,1,1,1,1,2,0,2,1,4,1,1,0,0
384072291,384070719,87964659,-6.3607016000000005,106.82454369999999,13.395877,-3.4352999,-5.3520947,0.010761263,0.016180344,0.0,0.04017488,-0.01666786,-0.9638091,-0.9631439,0.10868411,0.077194646,-0.21394694,1.0734068,-0.47547522,4.8317504,-0.07653088,-0.015291217,90.90057,5.5988293,0.3860507,0.3955491,0.14899348,0.10597332,inf,inf,inf,inf,1,1,1,1,2,0,2,1,4,1,1,0,0
384171042,384169648,87964659,-6.3607016000000005,106.82454369999999,13.39383,-3.431498,-5.437118,0.010761263,0.016180344,0.0,0.023760047,-0.007470545,-0.9319466,-0.92348105,0.10868411,0.077194646,-0.21394694,-1.8830451,-0.7344275,-3.7765348,-0.07625396,-0.015291217,90.90057,5.6838527,0.3941965,0.3972096,0.15345962,0.10739089,inf,inf,inf,inf,1,1,1,1,2,0,2,1,4,1,1,0,0
384270510,384268584,87964659,-6.3607016000000005,106.82454369999999,13.390634,-3.422857,-5.53008,0.010761263,0.016180344,0.0,0.025115894,0.011054685,-0.95581734,-0.94874674,0.10868411,0.077194646,-0.21394694,0.41167396,1.0699142,2.8482134,-0.075354956,-0.015291217,90.90057,5.7768145,0.38594633,0.39441323,0.14759126,0.105840966,inf,inf,inf,inf,1,1,1,1,2,0,2,1,4,1,1,0,0
384369172,384367504,87964659,-6.3607016000000005,106.82454369999999,13.387877,-3.415129,-5.6250772,0.010761263,0.016180344,0.0,0.011469867,0.0035778591,-0.932694,-0.92775077,0.10868411,0.077194646,-0.21394694,0.5537421,-1.2741014,1.5634316,-0.07463047,-0.015291217,90.90057,5.871812,0.39406255,0.39862266,0.15220498,0.10753535,inf,inf,inf,inf,1,1,1,1,2,0,2,1,4,1,1,0,0
384472689,384470934,87964659,-6.3607016000000005,106.82454369999999,13.388024,-3.4069705,-5.723814,0.010761263,0.016180344,0.0,0.012542927,0.006027856,-0.82537884,-0.8289132,0.10868411,0.077194646,-0.21394694,0.28948638,0.747079,1.8458096,-0.07462967,-0.015291217,90.90057,5.9705486,0.38587287,0.3958385,0.14655894,0.106001966,inf,inf,inf,inf,1,1,1,1,2,0,2,1,4,1,1,0,0
384571233,384569858,87964659,-6.3607016000000005,106.82454369999999,13.389017,-3.4007933,-5.8094764,0.010761263,0.016180344,0.0,0.0071473103,0.010117508,-0.8168625,-0.8249902,0.10868411,0.077194646,-0.21394694,-1.7693658,1.622247,-6.397453,-0.074415356,-0.015291217,90.90057,6.056211,0.39396635,0.39750028,0.15089029,0.10742042,inf,inf,inf,inf,1,1,1,1,2,0,2,1,4,1,1,0,0
384670457,384668787,87964659,-6.3607016000000005,106.82454369999999,13.387338,-3.3887506,-5.8957677,0.010761263,0.016180344,0.0,0.01749828,0.011423444,-0.80826986,-0.823008,0.10868411,0.077194646,-0.21394694,-0.30729774,0.21895322,2.6800745,-0.07395053,-0.015291217,90.90057,6.1425023,0.38691923,0.39544255,0.14654565,0.10635274,inf,inf,inf,inf,1,1,1,1,2,0,2,1,4,1,1,0,0
384774113,384772212,87964659,-6.3607016000000005,106.82454369999999,13.385415,-3.3769305,-5.987027,0.010761263,0.016180344,0.0,0.012213496,0.013147457,-0.8672108,-0.8853202,0.10868411,0.077194646,-0.21394694,2.0856903,2.4311578,-1.3436172,-0.07311867,-0.015291217,90.90057,6.233762,0.39511544,0.39711305,0.15113842,0.10776382,inf,inf,inf,inf,1,1,1,1,2,0,2,1,4,1,1,0,0
384868265,384866644,87964659,-6.3607016000000005,106.82454369999999,13.39077,-3.370514,-6.068305,0.010761263,0.016180344,0.0,0.008487948,0.009549704,-0.8624318,-0.8786457,0.10868411,0.077194646,-0.21394694,-0.82562387,-0.3957061,1.8274055,-0.07274331,-0.015291217,90.90057,6.3150396,0.38675463,0.3968294,0.14583209,0.10645355,inf,inf,inf,inf,1,1,1,1,2,0,2,1,4,1,1,0,0
384971731,384970069,87964659,-6.3607016000000005,106.82454369999999,13.397044,-3.3670702,-6.1513705,0.010761263,0.016180344,0.0,0.012567477,-0.0023518137,-0.8322961,-0.8423629,0.10868411,0.077194646,-0.21394694,-0.36222327,0.8268186,-0.3282477,-0.07268696,-0.015291217,90.90057,6.398105,0.3949145,0.39851832,0.15019321,0.10787027,inf,inf,inf,inf,1,1,1,1,2,0,2,1,4,1,1,0,0
385070684,385069005,87964659,-6.3607016000000005,106.82454369999999,13.396377,-3.357503,-6.228873,0.010761263,0.016180344,0.0,0.0069137667,-0.0045834403,-0.8249707,-0.830752,0.10868411,0.077194646,-0.21394694,-0.044612475,2.302143,-3.5722196,-0.07278276,-0.015291217,90.90057,6.4756074,0.3865535,0.39566743,0.14464857,0.10628198,inf,inf,inf,inf,1,1,1,1,2,0,2,1,4,1,1,0,0
385160260,385158962,87964659,-6.3607016000000005,106.82454369999999,13.395037,-3.3506398,-6.296377,0.010761263,0.016180344,0.0,0.007895157,-0.01198837,-0.80051404,-0.8016039,0.10868411,0.077194646,-0.21394694,-0.34817582,1.6346197,-5.8931155,-0.07279096,-0.015291217,90.90057,6.543112,0.39383885,0.3992299,0.14861932,0.107780404,inf,inf,inf,inf,1,1,1,1,2,0,2,1,4,1,1,0,0
385268200,385266854,87964659,-6.3607016000000005,106.82454369999999,13.392916,-3.353558,-6.3716097,0.010761263,0.016180344,0.0,0.008891826,-0.030629499,-0.74244916,-0.73543894,0.10868411,0.077194646,-0.21394694,1.0173714,-1.0944154,0.8886509,-0.072861664,-0.015291217,90.90057,6.6183443,0.38634825,0.39705342,0.1438529,0.10638915,inf,inf,inf,inf,1,1,1,1,2,0,2,1,4,1,1,0,0
385367122,385365808,87964659,-6.3607016000000005,106.82454369999999,13.391372,-3.3602452,-6.4362707,0.010761263,0.016180344,0.0,-0.003545763,-0.041092556,-0.6621016,-0.65061986,0.10868411,0.077194646,-0.21394694,-0.90460634,-0.003533037,-1.876147,-0.072788194,-0.015291217,90.90057,6.6830053,0.39443138,0.39873883,0.14814572,0.10780684,inf,inf,inf,inf,1,1,1,1,2,0,2,1,4,1,1,0,0
385470620,385469208,87964659,-6.3607016000000005,106.82454369999999,13.382465,-3.3581362,-6.496209,0.010761263,0.016180344,0.0,0.0050817914,-0.037573118,-0.5555574,-0.54379493,0.10868411,0.077194646,-0.21394694,1.3803713,2.5004606,2.538212,-0.072942756,-0.015291217,90.90057,6.742944,0.38608003,0.39589545,0.142633,0.10622621,inf,inf,inf,inf,1,1,1,1,2,0,2,1,4,1,1,0,0
385569914,385568148,87964659,-6.3607016000000005,106.82454369999999,13.374105,-3.3563752,-6.5427055,0.010761263,0.016180344,0.0,-0.004901378,-0.046476286,-0.46449885,-0.4502521,0.10868411,0.077194646,-0.21394694,-1.4961772,-0.95158273,1.2943966,-0.07289753,-0.015291217,90.90057,6.78944,0.39412022,0.39756757,0.14682958,0.10764055,inf,inf,inf,inf,1,1,1,1,2,0,2,1,4,1,1,0,0
385668887,385667092,87964659,-6.3607016000000005,106.82454369999999,13.369454,-3.3483684,-6.5800657,0.010761263,0.016180344,0.0,0.004985208,-0.05019311,-0.36055252,-0.3447726,0.10868411,0.077194646,-0.21394694,1.5808907,-0.7968844,2.2808125,-0.07327998,-0.015291217,90.90057,6.8268003,0.38578188,0.39474607,0.1416138,0.10606768,inf,inf,inf,inf,1,1,1,1,2,0,2,1,4,1,1,0,0
385772319,385770493,87964659,-6.3607016000000005,106.82454369999999,13.367097,-3.3425226,-6.6050167,0.010761263,0.016180344,0.0,0.011086154,-0.059308752,-0.21595101,-0.19672763,0.10868411,0.077194646,-0.21394694,0.47035792,-1.2095793,3.045623,-0.07371477,-0.015291217,90.90057,6.8517513,0.3937826,0.39898127,0.14556336,0.10776331,inf,inf,inf,inf,1,1,1,1,2,0,2,1,4,1,1,0,0
385870715,385869420,87964659,-6.3607016000000005,106.82454369999999,13.355665,-3.3327541,-6.629902,0.010761263,0.016180344,0.0,-0.0051675057,-0.045342352,-0.25535318,-0.24003434,0.10868411,0.077194646,-0.21394694,-2.2423456,1.6135327,-7.4265823,-0.073611505,-0.015291217,90.90057,6.8766365,0.38545662,0.39614365,0.14059189,0.10618932,inf,inf,inf,inf,1,1,1,1,2,0,2,1,4,1,1,0,0
385969714,385968348,87964659,-6.3607016000000005,106.82454369999999,13.345062,-3.3259144,-6.65852,0.010761263,0.016180344,0.0,0.006324417,-0.05124922,-0.2776527,-0.26621452,0.10868411,0.077194646,-0.21394694,-0.30408472,-0.12794904,2.51692,-0.07351819,-0.015291217,90.90057,6.905255,0.39341938,0.3978224,0.14471343,0.10760678,inf,inf,inf,inf,1,1,1,1,2,0,2,1,4,1,1,0,0
386068820,386067277,87964659,-6.3607016000000005,106.82454369999999,13.335529,-3.314903,-6.6925144,0.010761263,0.016180344,0.0,0.0019279378,-0.06327884,-0.31572932,-0.3099088,0.10868411,0.077194646,-0.21394694,0.22138539,-1.0886137,-1.500273,-0.07319636,-0.015291217,90.90057,6.939249,0.3850477,0.39500573,0.14039236,0.1060404,inf,inf,inf,inf,1,1,1,1,2,0,2,1,4,1,1,0,0
386172253,386170702,87964659,-6.3607016000000005,106.82454369999999,13.328941,-3.3076158,-6.7275662,0.010761263,0.016180344,0.0,0.004907359,-0.05816797,-0.33925608,-0.33504832,0.10868411,0.077194646,-0.21394694,-1.457981,-0.17195988,-0.3124369,-0.07330168,-0.015291217,90.90057,6.974301,0.3929871,0.39923543,0.14482403,0.10773475,inf,inf,inf,inf,1,1,1,1,2,0,2,1,4,1,1,0,0
386271301,386269631,87964659,-6.3607016000000005,106.82454369999999,13.322505,-3.2933772,-6.759209,0.010761263,0.016180344,0.0,0.021473741,-0.06477761,-0.30560362,-0.30110815,0.10868411,0.077194646,-0.21394694,0.37564784,-0.14647482,3.7476044,-0.073470384,-0.015291217,90.90057,7.005944,0.38459063,0.39639413,0.14024334,0.106164016,inf,inf,inf,inf,1,1,1,1,2,0,2,1,4,1,1,0,0
386370200,386368562,87964659,-6.3607016000000005,106.82454369999999,13.318525,-3.283156,-6.786736,0.010761263,0.016180344,0.0,0.01897855,-0.07415104,-0.3459718,-0.33760568,0.10868411,0.077194646,-0.21394694,-1.1385648,1.2224529,-5.229019,-0.07370228,-0.015291217,90.90057,7.0334706,0.39250773,0.39808023,0.14479335,0.10758524,inf,inf,inf,inf,1,1,1,1,2,0,2,1,4,1,1,0,0
386469053,386467489,87964659,-6.3607016000000005,106.82454369999999,13.3122225,-3.2691126,-6.819465,0.010761263,0.016180344,0.0,0.033043552,-0.071076006,-0.4063299,-0.39478853,0.10868411,0.077194646,-0.21394694,0.58785266,-0.20280693,3.8826134,-0.07372037,-0.015291217,90.90057,7.0662,0.38413954,0.39525947,0.1401864,0.106021225,inf,inf,inf,inf,1,1,1,1,2,0,2,1,4,1,1,0,0
386567880,386566418,87964659,-6.3607016000000005,106.82454369999999,13.308489,-3.2600935,-6.865996,0.010761263,0.016180344,0.0,0.049527124,-0.08737455,-0.63246787,-0.61762196,0.10868411,0.077194646,-0.21394694,1.851078,0.8367373,-2.1296911,-0.07362471,-0.015291217,90.90057,7.1127305,0.3920401,0.39691585,0.14499494,0.10743406,inf,inf,inf,inf,1,1,1,1,2,0,2,1,4,1,1,0,0
386671393,386669843,87964659,-6.3607016000000005,106.82454369999999,13.304543,-3.2477958,-6.933754,0.010761263,0.016180344,0.0,0.050440446,-0.09344441,-0.89607394,-0.87119913,0.10868411,0.077194646,-0.21394694,-1.1567641,-0.20481448,-2.343459,-0.07357723,-0.015291217,90.90057,7.1804886,0.38359275,0.3966489,0.1410637,0.10613749,inf,inf,inf,inf,1,1,1,1,2,0,2,1,4,1,1,0,0
386770119,386768779,87964659,-6.3607016000000005,106.82454369999999,13.302497,-3.2392635,-7.0165777,0.010761263,0.016180344,0.0,0.05424672,-0.1115847,-1.0442663,-1.0081009,0.10868411,0.077194646,-0.21394694,-2.2955463,0.62481445,-3.6831188,-0.074489444,-0.015291217,90.90057,7.2633123,0.3914923,0.39833334,0.14678936,0.1075592,inf,inf,inf,inf,1,1,1,1,2,0,2,1,4,1,1,0,0
386869010,386867701,87964659,-6.3607016000000005,106.82454369999999,13.29728,-3.2270522,-7.0934825,0.010761263,0.016180344,0.0,0.06851282,-0.11147737,-1.0490459,-0.98990583,0.10868411,0.077194646,-0.21394694,0.4280764,0.4786113,3.766162,-0.075766824,-0.015291217,90.90057,7.340217,0.38309655,0.39551735,0.14267904,0.10600067,inf,inf,inf,inf,1,1,1,1,2,0,2,1,4,1,1,0,0
386972787,386971126,87964659,-6.3607016000000005,106.82454369999999,13.294944,-3.221151,-7.175424,0.010761263,0.016180344,0.0,0.06838982,-0.12980843,-1.0123432,-0.93584675,0.10868411,0.077194646,-0.21394694,0.10813113,2.000295,-2.0612712,-0.076828584,-0.015291217,90.90057,7.4221587,0.39100245,0.39718118,0.14740032,0.107417196,inf,inf,inf,inf,1,1,1,1,2,0,2,1,4,1,1,0,0
387071948,387070063,87964659,-6.3607016000000005,106.82454369999999,13.291838,-3.2136858,-7.2396455,0.010761263,0.016180344,0.0,0.06807044,-0.13143192,-0.9661317,-0.8662893,0.10868411,0.077194646,-0.21394694,-1.4515922,1.4608335,-2.1202028,-0.077981405,-0.015291217,90.90057,7.48638,0.3825884,0.39439383,0.1423497,0.10586697,inf,inf,inf,inf,1,1,1,1,2,0,2,1,4,1,1,0,0
387175173,387173481,87964659,-6.3607016000000005,106.82454369999999,13.291864,-3.2123842,-7.309913,0.010761263,0.016180344,0.0,0.078371994,-0.15265247,-0.93302584,-0.817095,0.10868411,0.077194646,-0.21394694,0.3941614,-2.4025161,4.0834875,-0.0788118,-0.015291217,90.90057,7.556648,0.39047813,0.39860615,0.14666656,0.107560635,inf,inf,inf,inf,1,1,1,1,2,0,2,1,4,1,1,0,0
387269286,387267913,87964659,-6.3607016000000005,106.82454369999999,13.285728,-3.2073295,-7.3801694,0.010761263,0.016180344,0.0,0.07096067,-0.15588494,-0.9763107,-0.8538003,0.10868411,0.077194646,-0.21394694,-0.35163978,0.03769966,-1.1760781,-0.079094745,-0.015291217,90.90057,7.626904,0.38207975,0.3957933,0.14217766,0.106005624,inf,inf,inf,inf,1,1,1,1,2,0,2,1,4,1,1,0,0
387368259,387366842,87964659,-6.3607016000000005,106.82454369999999,13.28216,-3.2081776,-7.4614286,0.010761263,0.016180344,0.0,0.07627834,-0.15457849,-0.99675983,-0.8723171,0.10868411,0.077194646,-0.21394694,-0.6120221,2.1205592,-1.4621891,-0.07937416,-0.015291217,90.90057,7.7081633,0.38996089,0.3974659,0.14673696,0.10742562,inf,inf,inf,inf,1,1,1,1,2,0,2,1,4,1,1,0,0
387467136,387465785,87964659,-6.3607016000000005,106.82454369999999,13.278804,-3.2038922,-7.5407734,0.010761263,0.016180344,0.0,0.07757643,-0.16459459,-0.92726696,-0.8013122,0.10868411,0.077194646,-0.21394694,1.7364818,-0.18245563,5.159195,-0.080073625,-0.015291217,90.90057,7.787508,0.3815317,0.3946808,0.14203379,0.10587847,inf,inf,inf,inf,1,1,1,1,2,0,2,1,4,1,1,0,0
387570526,387569197,87964659,-6.3607016000000005,106.82454369999999,13.278903,-3.2047796,-7.6133285,0.010761263,0.016180344,0.0,0.0792592,-0.1705929,-0.746641,-0.62032497,0.10868411,0.077194646,-0.21394694,-1.3501904,-1.5244377,3.4501224,-0.08061161,-0.015291217,90.90057,7.860063,0.38940403,0.39889908,0.14640965,0.10757379,inf,inf,inf,inf,1,1,1,1,2,0,2,1,4,1,1,0,0
387669784,387668136,87964659,-6.3607016000000005,106.82454369999999,13.280188,-3.1999962,-7.6667714,0.010761263,0.016180344,0.0,0.08662861,-0.16760887,-0.51374066,-0.39102346,0.10868411,0.077194646,-0.21394694,-0.4879892,-0.4187585,7.100959,-0.08119008,-0.015291217,90.90057,7.913506,0.38095573,0.39607957,0.14119469,0.10601872,inf,inf,inf,inf,1,1,1,1,2,0,2,1,4,1,1,0,0
387768820,387767068,87964659,-6.3607016000000005,106.82454369999999,13.284219,-3.1997552,-7.698364,0.010761263,0.016180344,0.0,0.08740798,-0.17560521,-0.3138783,-0.1960406,0.10868411,0.077194646,-0.21394694,-1.3438402,-0.32674912,0.5323868,-0.081506655,-0.015291217,90.90057,7.9450984,0.38879952,0.39775282,0.1447463,0.10743996,inf,inf,inf,inf,1,1,1,1,2,0,2,1,4,1,1,0,0
387871827,387870483,87964659,-6.3607016000000005,106.82454369999999,13.286201,-3.1942413,-7.7273307,0.010761263,0.016180344,0.0,0.09317829,-0.17238243,-0.22896565,-0.12688851,0.10868411,0.077194646,-0.21394694,1.6432089,0.9227942,0.026983714,-0.08130865,-0.015291217,90.90057,7.9740653,0.3803956,0.39495295,0.13929853,0.105890326,inf,inf,inf,inf,1,1,1,1,2,0,2,1,4,1,1,0,0
387971134,387969427,87964659,-6.3607016000000005,106.82454369999999,13.289566,-3.192654,-7.750307,0.010761263,0.016180344,0.0,0.09381141,-0.17704031,-0.21354364,-0.12580779,0.10868411,0.077194646,-0.21394694,0.06184118,-0.3632737,-0.3387031,-0.08029579,-0.015291217,90.90057,7.9970417,0.38820374,0.39660618,0.1434093,0.10730602,inf,inf,inf,inf,1,1,1,1,2,0,2,1,4,1,1,0,0
388069678,388068338,87964659,-6.3607016000000005,106.82454369999999,13.291965,-3.1944666,-7.784486,0.010761263,0.016180344,0.0,0.09306534,-0.19484782,-0.22880867,-0.16199188,0.10868411,0.077194646,-0.21394694,0.9374984,-1.1339769,3.5167837,-0.079485536,-0.015291217,90.90057,8.03122,0.37981117,0.3963518,0.13915777,0.10603263,inf,inf,inf,inf,1,1,1,1,2,0,2,1,4,1,1,0,0
388168724,388167274,87964659,-6.3607016000000005,106.82454369999999,13.296229,-3.2019892,-7.8174176,0.010761263,0.016180344,0.0,0.08309387,-0.19401188,-0.25758123,-0.20608932,0.10868411,0.077194646,-0.21394694,-2.7502227,1.9718397,-4.0061965,-0.07912119,-0.015291217,90.90057,8.064153,0.38761598,0.39803457,0.14386365,0.10745735,inf,inf,inf,inf,1,1,1,1,2,0,2,1,4,1,1,0,0
388272415,388270693,87964659,-6.3607016000000005,106.82454369999999,13.298889,-3.2059946,-7.8507414,0.010761263,0.016180344,0.0,0.095916405,-0.19940814,-0.2479469,-0.20806912,0.10868411,0.077194646,-0.21394694,-0.32733673,-0.40512258,1.3706851,-0.0788612,-0.015291217,90.90057,8.097476,0.3792575,0.39523703,0.13941616,0.10590978,inf,inf,inf,inf,1,1,1,1,2,0,2,1,4,1,1,0,0
388371294,388369622,87964659,-6.3607016000000005,106.82454369999999,13.302819,-3.2130415,-7.8743105,0.010761263,0.016180344,0.0,0.09331431,-0.21288271,-0.20024674,-0.16495472,0.10868411,0.077194646,-0.21394694,1.6381674,-2.0937846,2.6422534,-0.07854507,-0.015291217,90.90057,8.121045,0.38706684,0.3968999,0.14425555,0.10732889,inf,inf,inf,inf,1,1,1,1,2,0,2,1,4,1,1,0,0
388470352,388468563,87964659,-6.3607016000000005,106.82454369999999,13.3052225,-3.2131283,-7.8913875,0.010761263,0.016180344,0.0,0.10406733,-0.2055216,-0.1322827,-0.10047607,0.10868411,0.077194646,-0.21394694,-0.27527884,-0.35705823,0.025968779,-0.078533486,-0.015291217,90.90057,8.138123,0.378677,0.39412972,0.13974544,0.105788134,inf,inf,inf,inf,1,1,1,1,2,0,2,1,4,1,1,0,0
388568798,388567480,87964659,-6.3607016000000005,106.82454369999999,13.309446,-3.2170253,-7.900391,0.010761263,0.016180344,0.0,0.09580992,-0.20291856,-0.12294975,-0.09136439,0.10868411,0.077194646,-0.21394694,-1.0871907,1.8324411,-6.5121226,-0.07862426,-0.015291217,90.90057,8.147126,0.38648424,0.39834544,0.14395621,0.10748553,inf,inf,inf,inf,1,1,1,1,2,0,2,1,4,1,1,0,0
388667770,388666409,87964659,-6.3607016000000005,106.82454369999999,13.310732,-3.2137225,-7.9122624,0.010761263,0.016180344,0.0,0.10184119,-0.18927778,-0.096559085,-0.0694349,0.10868411,0.077194646,-0.21394694,0.6268952,0.1447194,1.3741114,-0.07830473,-0.015291217,90.90057,8.158998,0.37805706,0.39555672,0.13935657,0.10594106,inf,inf,inf,inf,1,1,1,1,2,0,2,1,4,1,1,0,0
388771406,388769835,87964659,-6.3607016000000005,106.82454369999999,13.314134,-3.2152781,-7.923674,0.010761263,0.016180344,0.0,0.095584564,-0.19731516,-0.10763915,-0.08314911,0.10868411,0.077194646,-0.21394694,0.68566704,-0.11556959,0.9702748,-0.07792555,-0.015291217,90.90057,8.170409,0.3858625,0.39722103,0.14398631,0.10736079,inf,inf,inf,inf,1,1,1,1,2,0,2,1,4,1,1,0,0
388870151,388868774,87964659,-6.3607016000000005,106.82454369999999,13.31507,-3.2151196,-7.9325333,0.010761263,0.016180344,0.0,0.09311492,-0.18299319,-0.084127486,-0.06072316,0.10868411,0.077194646,-0.21394694,-2.0028632,1.9209557,-4.0866985,-0.07811227,-0.015291217,90.90057,8.179268,0.37735778,0.3944434,0.13969918,0.10580673,inf,inf,inf,inf,1,1,1,1,2,0,2,1,4,1,1,0,0
388969458,388967693,87964659,-6.3607016000000005,106.82454369999999,13.317298,-3.2185206,-7.9346437,0.010761263,0.016180344,0.0,0.09665335,-0.18101917,-0.014969903,0.008042426,0.10868411,0.077194646,-0.21394694,2.3387177,0.7575509,1.2756675,-0.07845262,-0.015291217,90.90057,8.181378,0.38516438,0.39609596,0.14419849,0.107223116,inf,inf,inf,inf,1,1,1,1,2,0,2,1,4,1,1,0,0
389072766,389071119,87964659,-6.3607016000000005,106.82454369999999,13.317039,-3.2185392,-7.9270725,0.010761263,0.016180344,0.0,0.08844773,-0.1909687,0.029064838,0.055897832,0.10868411,0.077194646,-0.21394694,0.28184777,-2.1693609,3.0653093,-0.07794201,-0.015291217,90.90057,8.173807,0.3766686,0.39586046,0.1396969,0.105957925,inf,inf,inf,inf,1,1,1,1,2,0,2,1,4,1,1,0,0
389167033,389165583,87964659,-6.3607016000000005,106.82454369999999,13.318073,-3.2213085,-7.917248,0.010761263,0.016180344,0.0,0.09661185,-0.18618177,0.034500834,0.06710825,0.10868411,0.077194646,-0.21394694,0.47231254,0.8457658,2.4772887,-0.077698566,-0.015291217,90.90057,8.163982,0.38447404,0.39753425,0.14426526,0.10738079,inf,inf,inf,inf,1,1,1,1,2,0,2,1,4,1,1,0,0
389270300,389268977,87964659,-6.3607016000000005,106.82454369999999,13.31714,-3.2231932,-7.903011,0.010761263,0.016180344,0.0,0.08980404,-0.18011004,0.007181376,0.048041914,0.10868411,0.077194646,-0.21394694,0.5094942,0.34356105,-1.5199846,-0.07771511,-0.015291217,90.90057,8.149746,0.37589726,0.39474872,0.13980074,0.105826065,inf,inf,inf,inf,1,1,1,1,2,0,2,1,4,1,1,0,0
389369209,389367928,87964659,-6.3607016000000005,106.82454369999999,13.317261,-3.2271178,-7.8866034,0.010761263,0.016180344,0.0,0.09766605,-0.18412344,0.07020891,0.118848786,0.10868411,0.077194646,-0.21394694,0.49011686,-1.2966411,4.456658,-0.07761905,-0.015291217,90.90057,8.133338,0.38370508,0.39641076,0.14451775,0.10724552,inf,inf,inf,inf,1,1,1,1,2,0,2,1,4,1,1,0,0
389468261,389466835,87964659,-6.3607016000000005,106.82454369999999,13.316573,-3.227792,-7.8692117,0.010761263,0.016180344,0.0,0.09192942,-0.19284311,0.014503206,0.07148696,0.10868411,0.077194646,-0.21394694,2.4323688,-0.9313843,-2.2319062,-0.07683818,-0.015291217,90.90057,8.115947,0.3751735,0.39617303,0.1401914,0.10597982,inf,inf,inf,inf,1,1,1,1,2,0,2,1,4,1,1,0,0
389571977,389570274,87964659,-6.3607016000000005,106.82454369999999,13.31878,-3.2334292,-7.855182,0.010761263,0.016180344,0.0,0.08091885,-0.18664816,-0.028895129,0.03685292,0.10868411,0.077194646,-0.21394694,-0.30141172,-1.920835,2.50059,-0.07618323,-0.015291217,90.90057,8.101917,0.382994,0.39785644,0.14496222,0.1074058,inf,inf,inf,inf,1,1,1,1,2,0,2,1,4,1,1,0,0
389670733,389669191,87964659,-6.3607016000000005,106.82454369999999,13.318831,-3.233341,-7.839771,0.010761263,0.016180344,0.0,0.09096781,-0.19123736,-0.016130457,0.060430612,0.10868411,0.077194646,-0.21394694,-0.01741553,-1.4663157,0.15624712,-0.07601322,-0.015291217,90.90057,8.086506,0.37450078,0.39507785,0.1410488,0.105865665,inf,inf,inf,inf,1,1,1,1,2,0,2,1,4,1,1,0,0
389769759,389768120,87964659,-6.3607016000000005,106.82454369999999,13.321306,-3.237192,-7.826337,0.010761263,0.016180344,0.0,0.09380597,-0.18174928,-0.010404321,0.072744675,0.10868411,0.077194646,-0.21394694,1.9924117,1.2866024,-3.4188745,-0.07627792,-0.015291217,90.90057,8.0730715,0.3823441,0.39674166,0.14574867,0.10728589,inf,inf,inf,inf,1,1,1,1,2,0,2,1,4,1,1,0,0
389868747,389867053,87964659,-6.3607016000000005,106.82454369999999,13.318613,-3.2353563,-7.8075604,0.010761263,0.016180344,0.0,0.09181189,-0.17908783,0.05296555,0.14246413,0.10868411,0.077194646,-0.21394694,0.0022387234,-0.2752097,1.430467,-0.07691936,-0.015291217,90.90057,8.054296,0.37386915,0.39398062,0.1410442,0.10574982,inf,inf,inf,inf,1,1,1,1,2,0,2,1,4,1,1,0,0
389971877,389970475,87964659,-6.3607016000000005,106.82454369999999,13.318583,-3.2385578,-7.7856393,0.010761263,0.016180344,0.0,0.09413324,-0.18428302,0.09825955,0.19263664,0.10868411,0.077194646,-0.21394694,0.55087197,-1.3295391,4.7468457,-0.07731598,-0.015291217,90.90057,8.032374,0.38172466,0.39819455,0.1456087,0.10744774,inf,inf,inf,inf,1,1,1,1,2,0,2,1,4,1,1,0,0
390071282,390069404,87964659,-6.3607016000000005,106.82454369999999,13.315338,-3.2363784,-7.7639403,0.010761263,0.016180344,0.0,0.09125638,-0.17869411,0.09507492,0.19165684,0.10868411,0.077194646,-0.21394694,-1.3592967,1.0751959,-3.593825,-0.078466535,-0.015291217,90.90057,8.010675,0.37319833,0.39540607,0.14128485,0.10590486,inf,inf,inf,inf,1,1,1,1,2,0,2,1,4,1,1,0,0
390170058,390168337,87964659,-6.3607016000000005,106.82454369999999,13.315138,-3.238268,-7.7422447,0.010761263,0.016180344,0.0,0.10198705,-0.1640364,0.124198355,0.22079948,0.10868411,0.077194646,-0.21394694,0.69371814,2.4848619,1.9482179,-0.07956396,-0.015291217,90.90057,7.9889793,0.38106525,0.3970803,0.14577587,0.107328236,inf,inf,inf,inf,1,1,1,1,2,0,2,1,4,1,1,0,0
390268903,390267263,87964659,-6.3607016000000005,106.82454369999999,13.312158,-3.2351646,-7.715294,0.010761263,0.016180344,0.0,0.10076339,-0.16781604,0.22549476,0.32118455,0.10868411,0.077194646,-0.21394694,0.2537998,-2.2960286,2.2388468,-0.08084976,-0.015291217,90.90057,7.9620285,0.37327302,0.39480653,0.14212067,0.10611753,inf,inf,inf,inf,1,1,1,1,2,0,2,1,4,1,1,0,0
390372120,390370689,87964659,-6.3607016000000005,106.82454369999999,13.312757,-3.2366061,-7.680466,0.010761263,0.016180344,0.0,0.09704336,-0.17194434,0.29353824,0.38625836,0.10868411,0.077194646,-0.21394694,-0.6602616,-2.2325952,-0.48587173,-0.08180075,-0.015291217,90.90057,7.927201,0.38123435,0.3964839,0.1463866,0.10753438,inf,inf,inf,inf,1,1,1,1,2,0,2,1,4,1,1,0,0
390470978,390469619,87964659,-6.3607016000000005,106.82454369999999,13.310499,-3.2324698,-7.656377,0.010761263,0.016180344,0.0,0.09550979,-0.14833993,0.18331733,0.26723388,0.10868411,0.077194646,-0.21394694,1.3108386,-0.004303367,-1.5709597,-0.08228001,-0.015291217,90.90057,7.9031115,0.3726118,0.39622727,0.14164151,0.106244236,inf,inf,inf,inf,1,1,1,1,2,0,2,1,4,1,1,0,0
390569948,390568563,87964659,-6.3607016000000005,106.82454369999999,13.310441,-3.231491,-7.643904,0.010761263,0.016180344,0.0,0.08992874,-0.14971304,0.15011764,0.2232574,0.10868411,0.077194646,-0.21394694,1.7389828,-1.3297044,0.32582656,-0.08250652,-0.015291217,90.90057,7.890639,0.3805751,0.39792448,0.14657484,0.10766731,inf,inf,inf,inf,1,1,1,1,2,0,2,1,4,1,1,0,0
390673523,390671980,87964659,-6.3607016000000005,106.82454369999999,13.307881,-3.2280731,-7.6323767,0.010761263,0.016180344,0.0,0.09120611,-0.12546037,0.14559114,0.20747669,0.10868411,0.077194646,-0.21394694,-1.1283652,1.4546398,-1.4527273,-0.08250462,-0.015291217,90.90057,7.8791113,0.37291768,0.39576346,0.14359969,0.10652522,inf,inf,inf,inf,1,1,1,1,2,0,2,1,4,1,1,0,0
390768112,390766407,87964659,-6.3607016000000005,106.82454369999999,13.307424,-3.2268343,-7.622269,0.010761263,0.016180344,0.0,0.105011046,-0.121023096,0.18788418,0.23835543,0.10868411,0.077194646,-0.21394694,2.6037571,-1.4537432,3.553683,-0.08212675,-0.015291217,90.90057,7.869004,0.38101405,0.39745736,0.14821108,0.1079383,inf,inf,inf,inf,1,1,1,1,2,0,2,1,4,1,1,0,0
390871539,390869836,87964659,-6.3607016000000005,106.82454369999999,13.307826,-3.2212667,-7.6048603,0.010761263,0.016180344,0.0,0.101402156,-0.12330959,0.25747633,0.29879498,0.10868411,0.077194646,-0.21394694,-0.905244,0.5738428,-0.99045765,-0.081205495,-0.015291217,90.90057,7.851595,0.3722278,0.39717442,0.14327762,0.10661804,inf,inf,inf,inf,1,1,1,1,2,0,2,1,4,1,1,0,0
390970098,390968775,87964659,-6.3607016000000005,106.82454369999999,13.311122,-3.219081,-7.580045,0.010761263,0.016180344,0.0,0.107310414,-0.11301573,0.2663645,0.3009308,0.10868411,0.077194646,-0.21394694,1.6295115,0.919199,-0.7133583,-0.07965327,-0.015291217,90.90057,7.82678,0.38031468,0.39888632,0.14781973,0.10803745,inf,inf,inf,inf,1,1,1,1,2,0,2,1,4,1,1,0,0
391069293,391067692,87964659,-6.3607016000000005,106.82454369999999,13.311683,-3.2135603,-7.5579724,0.010761263,0.016180344,0.0,0.0968122,-0.114963055,0.2777251,0.3036888,0.10868411,0.077194646,-0.21394694,-3.1400638,-0.5677977,1.9183939,-0.07739185,-0.015291217,90.90057,7.804707,0.3715244,0.39603707,0.14281157,0.106439285,inf,inf,inf,inf,1,1,1,1,2,0,2,1,4,1,1,0,0
391172499,391171125,87964659,-6.3607016000000005,106.82454369999999,13.314933,-3.2130978,-7.534257,0.010761263,0.016180344,0.0,0.10160398,-0.119874164,0.2528692,0.27216998,0.10868411,0.077194646,-0.21394694,-0.61748314,-0.6376273,-1.6204226,-0.075416304,-0.015291217,90.90057,7.7809916,0.37960565,0.39773425,0.14764142,0.10785475,inf,inf,inf,inf,1,1,1,1,2,0,2,1,4,1,1,0,0
391271586,391270055,87964659,-6.3607016000000005,106.82454369999999,13.313335,-3.210209,-7.511623,0.010761263,0.016180344,0.0,0.10365723,-0.12697002,0.26958203,0.28365004,0.10868411,0.077194646,-0.21394694,0.016650893,-0.21853338,4.3579226,-0.0736415,-0.015291217,90.90057,7.7583575,0.37069488,0.39489162,0.14264436,0.10623743,inf,inf,inf,inf,1,1,1,1,2,0,2,1,4,1,1,0,0
391370553,391368977,87964659,-6.3607016000000005,106.82454369999999,13.310736,-3.2092807,-7.4892554,0.010761263,0.016180344,0.0,0.08707185,-0.13554026,0.22047223,0.2321438,0.10868411,0.077194646,-0.21394694,-1.8169198,1.5702544,-7.8064036,-0.07213413,-0.015291217,90.90057,7.73599,0.37876222,0.39914322,0.14737989,0.10793211,inf,inf,inf,inf,1,1,1,1,2,0,2,1,4,1,1,0,0
391469516,391467906,87964659,-6.3607016000000005,106.82454369999999,13.305674,-3.203509,-7.4702034,0.010761263,0.016180344,0.0,0.08839314,-0.14094892,0.23595181,0.24285902,0.10868411,0.077194646,-0.21394694,0.7116466,-1.4614279,4.906189,-0.07018399,-0.015291217,90.90057,7.716938,0.37003437,0.39630017,0.1429047,0.10634466,inf,inf,inf,inf,1,1,1,1,2,0,2,1,4,1,1,0,0
391568482,391566836,87964659,-6.3607016000000005,106.82454369999999,13.303854,-3.2026644,-7.450353,0.010761263,0.016180344,0.0,0.09685785,-0.1507045,0.30051994,0.30169794,0.10868411,0.077194646,-0.21394694,1.7900001,-0.010724692,1.8571143,-0.06845684,-0.015291217,90.90057,7.697088,0.37810904,0.39799124,0.14778192,0.10775988,inf,inf,inf,inf,1,1,1,1,2,0,2,1,4,1,1,0,0
391671598,391670262,87964659,-6.3607016000000005,106.82454369999999,13.298624,-3.1977632,-7.4265947,0.010761263,0.016180344,0.0,0.09062558,-0.15800111,0.27136922,0.2656669,0.10868411,0.077194646,-0.21394694,1.8575065,0.24326201,0.56410164,-0.06716248,-0.015291217,90.90057,7.6733294,0.36940277,0.395169,0.14267044,0.10618071,inf,inf,inf,inf,1,1,1,1,2,0,2,1,4,1,1,0,0
391770839,391769191,87964659,-6.3607016000000005,106.82454369999999,13.296068,-3.1975615,-7.402471,0.010761263,0.016180344,0.0,0.09450573,-0.17078714,0.32666436,0.31654382,0.10868411,0.077194646,-0.21394694,0.9932306,-1.0826913,5.8210244,-0.06545382,-0.015291217,90.90057,7.6492057,0.37747452,0.39683747,0.14712475,0.1075899,inf,inf,inf,inf,1,1,1,1,2,0,2,1,4,1,1,0,0
391869442,391868121,87964659,-6.3607016000000005,106.82454369999999,13.294356,-3.1914551,-7.383127,0.010761263,0.016180344,0.0,0.10122127,-0.17019546,0.29051715,0.2716323,0.10868411,0.077194646,-0.21394694,-0.38939267,0.7637101,-4.107788,-0.06379483,-0.015291217,90.90057,7.629862,0.3687815,0.39657465,0.14277177,0.10629413,inf,inf,inf,inf,1,1,1,1,2,0,2,1,4,1,1,0,0
391973136,391971551,87964659,-6.3607016000000005,106.82454369999999,13.29713,-3.1911373,-7.3570614,0.010761263,0.016180344,0.0,0.11253131,-0.18281578,0.3566541,0.33355144,0.10868411,0.077194646,-0.21394694,0.44436675,-0.08058845,3.064496,-0.06274729,-0.015291217,90.90057,7.603796,0.37686,0.39827088,0.14725384,0.10771233,inf,inf,inf,inf,1,1,1,1,2,0,2,1,4,1,1,0,0
392072230,392070477,87964659,-6.3607016000000005,106.82454369999999,13.301941,-3.1921895,-7.32189,0.010761263,0.016180344,0.0,0.11235714,-0.18439145,0.34486705,0.32631803,0.10868411,0.077194646,-0.21394694,-1.5926008,0.44077858,-2.4815326,-0.062263943,-0.015291217,90.90057,7.5686245,0.3681666,0.39544407,0.14267349,0.10613804,inf,inf,inf,inf,1,1,1,1,2,0,2,1,4,1,1,0,0
392171207,392169406,87964659,-6.3607016000000005,106.82454369999999,13.309698,-3.1991777,-7.2815533,0.010761263,0.016180344,0.0,0.12431776,-0.2058631,0.3966763,0.38436416,0.10868411,0.077194646,-0.21394694,0.80250084,-1.5979815,3.8401666,-0.06270875,-0.015291217,90.90057,7.528288,0.37624723,0.39711815,0.14714362,0.1075507,inf,inf,inf,inf,1,1,1,1,2,0,2,1,4,1,1,0,0
392269938,392268336,87964659,-6.3607016000000005,106.82454369999999,13.308984,-3.2057192,-7.239701,0.010761263,0.016180344,0.0,0.10952801,-0.20762575,0.3632349,0.35728124,0.10868411,0.077194646,-0.21394694,-2.1834476,-0.54052347,-3.5027084,-0.06350624,-0.015291217,90.90057,7.4864354,0.3675517,0.39432058,0.14244004,0.10598594,inf,inf,inf,inf,1,1,1,1,2,0,2,1,4,1,1,0,0
392368592,392367272,87964659,-6.3607016000000005,106.82454369999999,13.309421,-3.2166514,-7.199649,0.010761263,0.016180344,0.0,0.104221255,-0.21549074,0.3505094,0.34974188,0.10868411,0.077194646,-0.21394694,-1.1070794,-1.2848408,4.55209,-0.06397618,-0.015291217,90.90057,7.4463835,0.37563467,0.3985492,0.14699826,0.10767888,inf,inf,inf,inf,1,1,1,1,2,0,2,1,4,1,1,0,0
392472299,392470696,87964659,-6.3607016000000005,106.82454369999999,13.309642,-3.2212782,-7.1651306,0.010761263,0.016180344,0.0,0.1049114,-0.21046382,0.3378291,0.336906,0.10868411,0.077194646,-0.21394694,0.17440492,0.84929806,-3.070351,-0.064156346,-0.015291217,90.90057,7.411865,0.36696267,0.39572608,0.14253934,0.106110044,inf,inf,inf,inf,1,1,1,1,2,0,2,1,4,1,1,0,0
392570965,392569621,87964659,-6.3607016000000005,106.82454369999999,13.312977,-3.2280967,-7.130465,0.010761263,0.016180344,0.0,0.110359445,-0.2225842,0.43273953,0.42800984,0.10868411,0.077194646,-0.21394694,1.4607447,-2.253445,4.8211555,-0.06431857,-0.015291217,90.90057,7.3771996,0.37506172,0.39740643,0.14708658,0.107525714,inf,inf,inf,inf,1,1,1,1,2,0,2,1,4,1,1,0,0
392670845,392668566,87964659,-6.3607016000000005,106.82454369999999,13.317966,-3.229194,-7.094906,0.010761263,0.016180344,0.0,0.11699308,-0.2150002,0.45969862,0.44967285,0.10868411,0.077194646,-0.21394694,-0.695826,1.6724086,-0.307619,-0.06457812,-0.015291217,90.90057,7.3416405,0.3663054,0.39459613,0.14225501,0.10595052,inf,inf,inf,inf,1,1,1,1,2,0,2,1,4,1,1,0,0
392769078,392767481,87964659,-6.3607016000000005,106.82454369999999,13.325265,-3.2327363,-7.052875,0.010761263,0.016180344,0.0,0.10898464,-0.2173566,0.52321786,0.5077324,0.10868411,0.077194646,-0.21394694,-2.4611022,-0.14619376,-4.5969987,-0.06508049,-0.015291217,90.90057,7.2996097,0.3743951,0.39882717,0.14671053,0.10764453,inf,inf,inf,inf,1,1,1,1,2,0,2,1,4,1,1,0,0
392868121,392866411,87964659,-6.3607016000000005,106.82454369999999,13.331905,-3.2317476,-6.996474,0.010761263,0.016180344,0.0,0.115438014,-0.21269582,0.6445697,0.6266563,0.10868411,0.077194646,-0.21394694,1.5089307,0.9228541,0.08830307,-0.06649169,-0.015291217,90.90057,7.2432084,0.36571243,0.3960078,0.1415188,0.10608211,inf,inf,inf,inf,1,1,1,1,2,0,2,1,4,1,1,0,0
392971249,392969845,87964659,-6.3607016000000005,106.82454369999999,13.340927,-3.236592,-6.9295173,0.010761263,0.016180344,0.0,0.11465832,-0.21704486,0.67414695,0.6551649,0.10868411,0.077194646,-0.21394694,-2.3397768,-1.9905676,0.20720486,-0.06878187,-0.015291217,90.90057,7.176252,0.37378722,0.3976943,0.14560251,0.107501306,inf,inf,inf,inf,1,1,1,1,2,0,2,1,4,1,1,0,0
393070233,393068772,87964659,-6.3607016000000005,106.82454369999999,13.348695,-3.2456844,-6.868993,0.010761263,0.016180344,0.0,0.110812575,-0.21804261,0.54226446,0.52669644,0.10868411,0.077194646,-0.21394694,-0.68518394,0.5502222,1.1110348,-0.071844555,-0.015291217,90.90057,7.1157274,0.36572117,0.39524636,0.14167473,0.1061765,inf,inf,inf,inf,1,1,1,1,2,0,2,1,4,1,1,0,0
393169147,393167696,87964659,-6.3607016000000005,106.82454369999999,13.357297,-3.2592607,-6.8134866,0.010761263,0.016180344,0.0,0.10871312,-0.2163234,0.45947403,0.45050743,0.10868411,0.077194646,-0.21394694,0.5958398,-0.52005357,3.16522,-0.076205395,-0.015291217,90.90057,7.060221,0.37386742,0.39692143,0.14709164,0.10758779,inf,inf,inf,inf,1,1,1,1,2,0,2,1,4,1,1,0,0
393272565,393271137,87964659,-6.3607016000000005,106.82454369999999,13.363164,-3.264002,-6.748357,0.010761263,0.016180344,0.0,0.11145957,-0.20032966,0.40534562,0.41704804,0.10868411,0.077194646,-0.21394694,0.5162212,1.2721853,2.206419,-0.08177127,-0.015291217,90.90057,6.9950914,0.36523148,0.39664719,0.142766,0.106289774,inf,inf,inf,inf,1,1,1,1,2,0,2,1,4,1,1,0,0
393371723,393370053,87964659,-6.3607016000000005,106.82454369999999,13.370084,-3.2698188,-6.698282,0.010761263,0.016180344,0.0,0.10908298,-0.20117643,0.33140856,0.35458866,0.10868411,0.077194646,-0.21394694,0.08303648,-2.14471,3.4213874,-0.08749551,-0.015291217,90.90057,6.9450164,0.37340912,0.39834997,0.14793041,0.107710496,inf,inf,inf,inf,1,1,1,1,2,0,2,1,4,1,1,0,0
393470648,393468982,87964659,-6.3607016000000005,106.82454369999999,13.37252,-3.2717652,-6.6480455,0.010761263,0.016180344,0.0,0.10996678,-0.19615297,0.25059265,0.29461846,0.10868411,0.077194646,-0.21394694,0.9249743,0.17491278,1.7575029,-0.092689365,-0.015291217,90.90057,6.89478,0.36476472,0.39552742,0.14310354,0.1061385,inf,inf,inf,inf,1,1,1,1,2,0,2,1,4,1,1,0,0
393569193,393567912,87964659,-6.3607016000000005,106.82454369999999,13.376183,-3.2770884,-6.6076975,0.010761263,0.016180344,0.0,0.096060336,-0.18556991,0.1711044,0.22938123,0.10868411,0.077194646,-0.21394694,0.10335323,1.2790157,-2.587185,-0.09774872,-0.015291217,90.90057,6.854432,0.37297225,0.39720803,0.14864098,0.10755302,inf,inf,inf,inf,1,1,1,1,2,0,2,1,4,1,1,0,0
393668464,393666842,87964659,-6.3607016000000005,106.82454369999999,13.3805895,-3.2801564,-6.5596967,0.010761263,0.016180344,0.0,0.09673922,-0.17688125,0.22113687,0.3006383,0.10868411,0.077194646,-0.21394694,-1.1983203,0.90272564,-3.3321488,-0.10132712,-0.015291217,90.90057,6.8064313,0.36432108,0.39440572,0.14382792,0.10598796,inf,inf,inf,inf,1,1,1,1,2,0,2,1,4,1,1,0,0
393771533,393770269,87964659,-6.3607016000000005,106.82454369999999,13.387673,-3.2871108,-6.5111012,0.010761263,0.016180344,0.0,0.09402052,-0.1763753,0.21539389,0.30824977,0.10868411,0.077194646,-0.21394694,0.41950506,-1.3646414,-3.8981655,-0.10350213,-0.015291217,90.90057,6.757836,0.37254497,0.3986339,0.14834172,0.10768126,inf,inf,inf,inf,1,1,1,1,2,0,2,1,4,1,1,0,0
393870648,393869198,87964659,-6.3607016000000005,106.82454369999999,13.388797,-3.2909865,-6.4591384,0.010761263,0.016180344,0.0,0.083083645,-0.16349714,0.23248862,0.341407,0.10868411,0.077194646,-0.21394694,-1.5040736,-0.6693938,-1.3078624,-0.104300894,-0.015291217,90.90057,6.705873,0.36474657,0.39633656,0.14418156,0.106459536,inf,inf,inf,inf,1,1,1,1,2,0,2,1,4,1,1,0,0
393969945,393968140,87964659,-6.3607016000000005,106.82454369999999,13.391152,-3.2977257,-6.415018,0.010761263,0.016180344,0.0,0.08346125,-0.15821317,0.20764944,0.3237444,0.10868411,0.077194646,-0.21394694,-1.9724663,0.3372607,-0.6210376,-0.103613086,-0.015291217,90.90057,6.6617527,0.37306178,0.39802948,0.14920753,0.10787234,inf,inf,inf,inf,1,1,1,1,2,0,2,1,4,1,1,0,0
394068680,394067058,87964659,-6.3607016000000005,106.82454369999999,13.394832,-3.3065631,-6.368609,0.010761263,0.016180344,0.0,0.082008004,-0.15789817,0.17007567,0.29946673,0.10868411,0.077194646,-0.21394694,-1.8139838,-1.2369651,1.6812356,-0.10184299,-0.015291217,90.90057,6.6153436,0.3647724,0.39547095,0.14467183,0.10646433,inf,inf,inf,inf,1,1,1,1,2,0,2,1,4,1,1,0,0
394172121,394170487,87964659,-6.3607016000000005,106.82454369999999,13.399963,-3.3186889,-6.3261094,0.010761263,0.016180344,0.0,0.07826719,-0.15860695,0.2650756,0.4009213,0.10868411,0.077194646,-0.21394694,-1.2757065,-2.5603492,5.0974765,-0.099855706,-0.015291217,90.90057,6.572844,0.37313858,0.3997386,0.14970051,0.10815784,inf,inf,inf,inf,1,1,1,1,2,0,2,1,4,1,1,0,0
394270812,394269415,87964659,-6.3607016000000005,106.82454369999999,13.406997,-3.3269393,-6.2690253,0.010761263,0.016180344,0.0,0.07989385,-0.14442027,0.37763688,0.5234257,0.10868411,0.077194646,-0.21394694,1.858112,0.057841305,3.065141,-0.09773847,-0.015291217,90.90057,6.51576,0.36439952,0.3968493,0.14448085,0.106546335,inf,inf,inf,inf,1,1,1,1,2,0,2,1,4,1,1,0,0
394369906,394368344,87964659,-6.3607016000000005,106.82454369999999,13.414447,-3.336448,-6.212733,0.010761263,0.016180344,0.0,0.06772158,-0.14252238,0.36501482,0.51208436,0.10868411,0.077194646,-0.21394694,0.5122965,-0.6070729,2.0512598,-0.09406574,-0.015291217,90.90057,6.4594674,0.3727415,0.39855242,0.14827353,0.1079604,inf,inf,inf,inf,1,1,1,1,2,0,2,1,4,1,1,0,0
394468594,394467282,87964659,-6.3607016000000005,106.82454369999999,13.415675,-3.3366873,-6.1612396,0.010761263,0.016180344,0.0,0.051013283,-0.13672103,0.2925689,0.44158173,0.10868411,0.077194646,-0.21394694,2.0247014,-0.5174071,0.17679915,-0.08900856,-0.015291217,90.90057,6.4079742,0.36459187,0.3960356,0.14410757,0.10658072,inf,inf,inf,inf,1,1,1,1,2,0,2,1,4,1,1,0,0
394572414,394570701,87964659,-6.3607016000000005,106.82454369999999,13.416783,-3.3380978,-6.1263404,0.010761263,0.016180344,0.0,0.050876092,-0.11496145,0.18554136,0.32884488,0.10868411,0.077194646,-0.21394694,1.33761,-0.5921429,3.330705,-0.08326535,-0.015291217,90.90057,6.373075,0.3729778,0.39772382,0.1491624,0.10798648,inf,inf,inf,inf,1,1,1,1,2,0,2,1,4,1,1,0,0
394671403,394669675,87964659,-6.3607016000000005,106.82454369999999,13.420475,-3.3382273,-6.0939884,0.010761263,0.016180344,0.0,0.035241313,-0.109768935,0.0844397,0.23199537,0.10868411,0.077194646,-0.21394694,0.42800722,1.1976829,-0.69240934,-0.07820031,-0.015291217,90.90057,6.340723,0.36427733,0.39741135,0.14446406,0.1066546,inf,inf,inf,inf,1,1,1,1,2,0,2,1,4,1,1,0,0
394770388,394768567,87964659,-6.3607016000000005,106.82454369999999,13.42569,-3.3408182,-6.0666337,0.010761263,0.016180344,0.0,0.04919732,-0.09324518,0.16162989,0.30793178,0.10868411,0.077194646,-0.21394694,-0.889523,1.7596799,2.0810683,-0.073919125,-0.015291217,90.90057,6.3133683,0.3726785,0.39911643,0.14975193,0.10806719,inf,inf,inf,inf,1,1,1,1,2,0,2,1,4,1,1,0,0
394873360,394872002,87964659,-6.3607016000000005,106.82454369999999,13.4324045,-3.3384383,-6.0197506,0.010761263,0.016180344,0.0,0.055038158,-0.096633375,0.21670403,0.37197876,0.10868411,0.077194646,-0.21394694,0.6023044,0.7865698,0.066616744,-0.070489615,-0.015291217,90.90057,6.266485,0.36395815,0.39625254,0.144235,0.106463104,inf,inf,inf,inf,1,1,1,1,2,0,2,1,4,1,1,0,0
394967664,394966421,87964659,-6.3607016000000005,106.82454369999999,13.439306,-3.338011,-5.973313,0.010761263,0.016180344,0.0,0.05386767,-0.09531375,0.29525834,0.45297912,0.10868411,0.077194646,-0.21394694,-1.1689911,-0.43811277,0.9794617,-0.068329975,-0.015291217,90.90057,6.2200475,0.37233302,0.39793327,0.14874487,0.10786968,inf,inf,inf,inf,1,1,1,1,2,0,2,1,4,1,1,0,0
395071599,395069851,87964659,-6.3607016000000005,106.82454369999999,13.440192,-3.3298378,-5.9143963,0.010761263,0.016180344,0.0,0.03433583,-0.10857817,0.26306182,0.43001932,0.10868411,0.077194646,-0.21394694,-3.5074456,-1.000531,-3.0131514,-0.066221334,-0.015291217,90.90057,6.161131,0.363638,0.39508426,0.14307563,0.106273696,inf,inf,inf,inf,1,1,1,1,2,0,2,1,4,1,1,0,0
395170235,395168778,87964659,-6.3607016000000005,106.82454369999999,13.439658,-3.324447,-5.872145,0.010761263,0.016180344,0.0,0.044481896,-0.093604945,0.20608334,0.37462786,0.10868411,0.077194646,-0.21394694,0.20298488,-0.7181986,5.178551,-0.065147474,-0.015291217,90.90057,6.11888,0.371982,0.39933267,0.14808814,0.10796431,inf,inf,inf,inf,1,1,1,1,2,0,2,1,4,1,1,0,0
395269410,395267708,87964659,-6.3607016000000005,106.82454369999999,13.445493,-3.323736,-5.8231235,0.010761263,0.016180344,0.0,0.038157396,-0.109435044,0.19026919,0.36969924,0.10868411,0.077194646,-0.21394694,0.055790946,1.4606743,-2.926932,-0.06492124,-0.015291217,90.90057,6.069858,0.3632748,0.39646173,0.14333251,0.10635522,inf,inf,inf,inf,1,1,1,1,2,0,2,1,4,1,1,0,0
395372772,395371134,87964659,-6.3607016000000005,106.82454369999999,13.453522,-3.327747,-5.773397,0.010761263,0.016180344,0.0,0.04386193,-0.10577936,0.21372269,0.40129322,0.10868411,0.077194646,-0.21394694,-1.0148396,0.9243144,-2.6400416,-0.065471105,-0.015291217,90.90057,6.0201316,0.3716166,0.39814433,0.14797795,0.10776562,inf,inf,inf,inf,1,1,1,1,2,0,2,1,4,1,1,0,0
395471402,395470064,87964659,-6.3607016000000005,106.82454369999999,13.458629,-3.3196113,-5.7164116,0.010761263,0.016180344,0.0,0.040682044,-0.11487001,0.25739336,0.4555778,0.10868411,0.077194646,-0.21394694,-0.5232785,-2.7328267,2.6073763,-0.0663292,-0.015291217,90.90057,5.963146,0.36296606,0.39529708,0.14277504,0.1061679,inf,inf,inf,inf,1,1,1,1,2,0,2,1,4,1,1,0,0
395570555,395568998,87964659,-6.3607016000000005,106.82454369999999,13.461631,-3.3119836,-5.672392,0.010761263,0.016180344,0.0,0.02837491,-0.10325566,0.12513353,0.32619613,0.10868411,0.077194646,-0.21394694,0.34776303,-0.13884586,-1.9196519,-0.06655905,-0.015291217,90.90057,5.9191265,0.3712831,0.3995426,0.14734024,0.107859135,inf,inf,inf,inf,1,1,1,1,2,0,2,1,4,1,1,0,0
395660548,395658958,87964659,-6.3607016000000005,106.82454369999999,13.460559,-3.3024225,-5.635248,0.010761263,0.016180344,0.0,0.02646207,-0.09004223,0.14204943,0.346957,0.10868411,0.077194646,-0.21394694,0.0026599292,4.013907,-0.20360921,-0.06689329,-0.015291217,90.90057,5.881983,0.36186993,0.3960073,0.14250652,0.10607769,inf,inf,inf,inf,1,1,1,1,2,0,2,1,4,1,1,0,0
395768206,395766854,87964659,-6.3607016000000005,106.82454369999999,13.458876,-3.2953165,-5.5949364,0.010761263,0.016180344,0.0,0.016665924,-0.09434716,0.15679538,0.35980073,0.10868411,0.077194646,-0.21394694,1.6925445,3.3865457,-3.02266,-0.06793466,-0.015291217,90.90057,5.841671,0.37099925,0.39835674,0.14765951,0.10768585,inf,inf,inf,inf,1,1,1,1,2,0,2,1,4,1,1,0,0
395868103,395865843,87964659,-6.3607016000000005,106.82454369999999,13.459238,-3.287436,-5.551475,0.010761263,0.016180344,0.0,0.009325848,-0.107101895,0.2493813,0.45327145,0.10868411,0.077194646,-0.21394694,-0.97215295,-0.8919625,1.6196523,-0.07016314,-0.015291217,90.90057,5.7982097,0.36241078,0.3955253,0.14250697,0.10611169,inf,inf,inf,inf,1,1,1,1,2,0,2,1,4,1,1,0,0
395971011,395969211,87964659,-6.3607016000000005,106.82454369999999,13.460492,-3.2847564,-5.5023346,0.010761263,0.016180344,0.0,0.016040113,-0.10592866,0.34088048,0.53994703,0.10868411,0.077194646,-0.21394694,-1.5483353,-0.17703824,4.7429323,-0.07274507,-0.015291217,90.90057,5.749069,0.37071872,0.39718863,0.14676362,0.107520655,inf,inf,inf,inf,1,1,1,1,2,0,2,1,4,1,1,0,0
396069463,396068155,87964659,-6.3607016000000005,106.82454369999999,13.456609,-3.2849562,-5.4506416,0.010761263,0.016180344,0.0,-0.0022916426,-0.12291749,0.32454062,0.52156454,0.10868411,0.077194646,-0.21394694,-0.8449829,0.8545081,1.1334114,-0.07462774,-0.015291217,90.90057,5.6973763,0.36260015,0.397195,0.14227705,0.106410265,inf,inf,inf,inf,1,1,1,1,2,0,2,1,4,1,1,0,0
396168477,396167071,87964659,-6.3607016000000005,106.82454369999999,13.452239,-3.2894785,-5.404389,0.010761263,0.016180344,0.0,-0.015044975,-0.12946619,0.28411517,0.4745803,0.10868411,0.077194646,-0.21394694,1.1629031,1.3464348,-3.4856896,-0.07677322,-0.015291217,90.90057,5.6511235,0.3709322,0.39888507,0.1469487,0.107824236,inf,inf,inf,inf,1,1,1,1,2,0,2,1,4,1,1,0,0
396271832,396270508,87964659,-6.3607016000000005,106.82454369999999,13.445213,-3.2916245,-5.3579497,0.010761263,0.016180344,0.0,-0.025561986,-0.1375716,0.27984035,0.4677913,0.10868411,0.077194646,-0.21394694,-0.8172631,-1.0728885,-1.2326992,-0.07945203,-0.015291217,90.90057,5.6046844,0.3622849,0.39602408,0.14191736,0.10622537,inf,inf,inf,inf,1,1,1,1,2,0,2,1,4,1,1,0,0
396370786,396369429,87964659,-6.3607016000000005,106.82454369999999,13.437732,-3.2953117,-5.317083,0.010761263,0.016180344,0.0,-0.042702597,-0.13669871,0.26002413,0.44282544,0.10868411,0.077194646,-0.21394694,-1.3704952,2.4052746,-2.8163288,-0.08200826,-0.015291217,90.90057,5.5638175,0.37060383,0.39769915,0.14661548,0.10763601,inf,inf,inf,inf,1,1,1,1,2,0,2,1,4,1,1,0,0
396470173,396468359,87964659,-6.3607016000000005,106.82454369999999,13.430247,-3.2941399,-5.2779603,0.010761263,0.016180344,0.0,-0.051432718,-0.1305672,0.22089264,0.39927316,0.10868411,0.077194646,-0.21394694,-0.8386532,1.4868009,-1.9533176,-0.084265195,-0.015291217,90.90057,5.524695,0.3620586,0.39486882,0.14195976,0.10606093,inf,inf,inf,inf,1,1,1,1,2,0,2,1,4,1,1,0,0
396568923,396567289,87964659,-6.3607016000000005,106.82454369999999,13.423281,-3.2957683,-5.243217,0.010761263,0.016180344,0.0,-0.05233225,-0.13976018,0.27033493,0.44029543,0.10868411,0.077194646,-0.21394694,-0.5467314,-0.19333902,-0.33207044,-0.08553279,-0.015291217,90.90057,5.4899516,0.37037295,0.39909977,0.14669974,0.10775124,inf,inf,inf,inf,1,1,1,1,2,0,2,1,4,1,1,0,0
396672317,396670716,87964659,-6.3607016000000005,106.82454369999999,13.413955,-3.2994921,-5.207758,0.010761263,0.016180344,0.0,-0.049264096,-0.13046175,0.24373636,0.4073281,0.10868411,0.077194646,-0.21394694,0.9037653,1.0601338,-2.7418911,-0.08586172,-0.015291217,90.90057,5.4544926,0.36172938,0.3962398,0.14161652,0.10614783,inf,inf,inf,inf,1,1,1,1,2,0,2,1,4,1,1,0,0
396771099,396769646,87964659,-6.3607016000000005,106.82454369999999,13.404628,-3.3046906,-5.1722345,0.010761263,0.016180344,0.0,-0.053615246,-0.13295257,0.29811972,0.45259887,0.10868411,0.077194646,-0.21394694,2.0576644,-0.22752981,0.80829227,-0.08538733,-0.015291217,90.90057,5.418969,0.3700213,0.39791843,0.14628255,0.10756199,inf,inf,inf,inf,1,1,1,1,2,0,2,1,4,1,1,0,0
396869966,396868579,87964659,-6.3607016000000005,106.82454369999999,13.395271,-3.3096952,-5.140984,0.010761263,0.016180344,0.0,-0.055499636,-0.1472785,0.28574234,0.43067965,0.10868411,0.077194646,-0.21394694,1.4290744,-3.2881343,5.180865,-0.08446667,-0.015291217,90.90057,5.3877187,0.36148992,0.39508882,0.14127134,0.10598204,inf,inf,inf,inf,1,1,1,1,2,0,2,1,4,1,1,0,0
396968990,396967507,87964659,-6.3607016000000005,106.82454369999999,13.386595,-3.3171213,-5.118462,0.010761263,0.016180344,0.0,-0.062371917,-0.14513747,0.18756944,0.3195468,0.10868411,0.077194646,-0.21394694,-1.2426248,0.23733251,0.5284959,-0.0832895,-0.015291217,90.90057,5.3651967,0.36976558,0.3967449,0.14596507,0.10739059,inf,inf,inf,inf,1,1,1,1,2,0,2,1,4,1,1,0,0
397072814,397070938,87964659,-6.3607016000000005,106.82454369999999,13.376833,-3.3190093,-5.088418,0.010761263,0.016180344,0.0,-0.042404726,-0.13734506,0.26614583,0.3906586,0.10868411,0.077194646,-0.21394694,2.24572,-0.8983734,-0.06768812,-0.08200231,-0.015291217,90.90057,5.3351526,0.3613418,0.39648128,0.14154214,0.10610739,inf,inf,inf,inf,1,1,1,1,2,0,2,1,4,1,1,0,0
397171522,397169871,87964659,-6.3607016000000005,106.82454369999999,13.369215,-3.3224297,-5.0497174,0.010761263,0.016180344,0.0,-0.040709913,-0.14377385,0.31967378,0.43852106,0.10868411,0.077194646,-0.21394694,0.010810792,-3.0044558,0.34107843,-0.080639996,-0.015291217,90.90057,5.296452,0.36961734,0.39815685,0.14584352,0.107523434,inf,inf,inf,inf,1,1,1,1,2,0,2,1,4,1,1,0,0
397270264,397268794,87964659,-6.3607016000000005,106.82454369999999,13.358419,-3.3275266,-5.0106144,0.010761263,0.016180344,0.0,-0.042625528,-0.14815764,0.23285145,0.3515007,0.10868411,0.077194646,-0.21394694,-0.8095807,-0.43414298,-4.72904,-0.079459794,-0.015291217,90.90057,5.257349,0.36119428,0.39533207,0.14078271,0.10596217,inf,inf,inf,inf,1,1,1,1,2,0,2,1,4,1,1,0,0
397369112,397367724,87964659,-6.3607016000000005,106.82454369999999,13.348307,-3.3350909,-4.9754133,0.010761263,0.016180344,0.0,-0.045636393,-0.13097934,0.25350958,0.37264854,0.10868411,0.077194646,-0.21394694,-0.8182211,0.25404805,-0.14877057,-0.07897139,-0.015291217,90.90057,5.222148,0.36945754,0.3969951,0.14568847,0.107374854,inf,inf,inf,inf,1,1,1,1,2,0,2,1,4,1,1,0,0
397467957,397466659,87964659,-6.3607016000000005,106.82454369999999,13.338752,-3.337704,-4.9380865,0.010761263,0.016180344,0.0,-0.041781176,-0.12813029,0.21853837,0.33962914,0.10868411,0.077194646,-0.21394694,-1.8627846,0.018716143,1.2471755,-0.07904408,-0.015291217,90.90057,5.184821,0.3610252,0.39673275,0.14093123,0.106094696,inf,inf,inf,inf,1,1,1,1,2,0,2,1,4,1,1,0,0
397571470,397570082,87964659,-6.3607016000000005,106.82454369999999,13.332449,-3.342145,-4.904626,0.010761263,0.016180344,0.0,-0.005201542,-0.120402835,0.24365783,0.36239922,0.10868411,0.077194646,-0.21394694,2.3640609,-0.08754579,1.4095451,-0.07972163,-0.015291217,90.90057,5.1513605,0.36928633,0.39840686,0.14561439,0.10751193,inf,inf,inf,inf,1,1,1,1,2,0,2,1,4,1,1,0,0
397670352,397669012,87964659,-6.3607016000000005,106.82454369999999,13.328326,-3.3448648,-4.8726315,0.010761263,0.016180344,0.0,-0.0005687434,-0.11560473,0.21104039,0.327202,0.10868411,0.077194646,-0.21394694,0.691451,0.5975551,-2.0755985,-0.0810935,-0.015291217,90.90057,5.119366,0.3608212,0.3955798,0.1407212,0.105941914,inf,inf,inf,inf,1,1,1,1,2,0,2,1,4,1,1,0,0
397769614,397767947,87964659,-6.3607016000000005,106.82454369999999,13.326521,-3.3482218,-4.839026,0.010761263,0.016180344,0.0,0.025866725,-0.09177182,0.34034193,0.45246312,0.10868411,0.077194646,-0.21394694,0.076017976,1.0276632,-1.4101237,-0.08223421,-0.015291217,90.90057,5.0857606,0.3690728,0.3972409,0.14539951,0.10735661,inf,inf,inf,inf,1,1,1,1,2,0,2,1,4,1,1,0,0
397868675,397866873,87964659,-6.3607016000000005,106.82454369999999,13.32439,-3.3478103,-4.7908235,0.010761263,0.016180344,0.0,0.041865222,-0.092885785,0.4266152,0.53585154,0.10868411,0.077194646,-0.21394694,-0.17097293,-1.9932275,3.6290596,-0.08295508,-0.015291217,90.90057,5.037558,0.36068437,0.39445084,0.1403296,0.10580987,inf,inf,inf,inf,1,1,1,1,2,0,2,1,4,1,1,0,0
397967513,397965836,87964659,-6.3607016000000005,106.82454369999999,13.323426,-3.3493767,-4.747289,0.010761263,0.016180344,0.0,0.043676455,-0.08345642,0.38057065,0.48406598,0.10868411,0.077194646,-0.21394694,-0.3640772,0.5375273,0.9782994,-0.083133794,-0.015291217,90.90057,4.994024,0.36890972,0.39866138,0.14442424,0.107502356,inf,inf,inf,inf,1,1,1,1,2,0,2,1,4,1,1,0,0
398070586,398069232,87964659,-6.3607016000000005,106.82454369999999,13.320424,-3.3479562,-4.711626,0.010761263,0.016180344,0.0,0.056215685,-0.08407635,0.34730136,0.44056243,0.10868411,0.077194646,-0.21394694,1.5277929,-2.3265932,2.4145977,-0.08376632,-0.015291217,90.90057,4.9583607,0.36050442,0.3958305,0.13998868,0.105934516,inf,inf,inf,inf,1,1,1,1,2,0,2,1,4,1,1,0,0
398169530,398168162,87964659,-6.3607016000000005,106.82454369999999,13.318266,-3.347309,-4.679947,0.010761263,0.016180344,0.0,0.06278389,-0.086068794,0.3610122,0.4423335,0.10868411,0.077194646,-0.21394694,3.1339502,-3.1441565,6.0143404,-0.084540404,-0.015291217,90.90057,4.9266815,0.36872765,0.39749935,0.1447767,0.1073534,inf,inf,inf,inf,1,1,1,1,2,0,2,1,4,1,1,0,0
398268457,398267094,87964659,-6.3607016000000005,106.82454369999999,13.315153,-3.345563,-4.6457877,0.010761263,0.016180344,0.0,0.07029399,-0.06756834,0.45877483,0.5272205,0.10868411,0.077194646,-0.21394694,0.2730582,0.0008957608,2.1713018,-0.08558486,-0.015291217,90.90057,4.8925223,0.3603901,0.3947051,0.14019442,0.10580828,inf,inf,inf,inf,1,1,1,1,2,0,2,1,4,1,1,0,0
398367616,398366028,87964659,-6.3607016000000005,106.82454369999999,13.314592,-3.345877,-4.607619,0.010761263,0.016180344,0.0,0.06488372,-0.07514586,0.40604076,0.46241176,0.10868411,0.077194646,-0.21394694,-2.1890104,-0.46549013,-1.963674,-0.08576597,-0.015291217,90.90057,4.8543534,0.3686087,0.39635378,0.1442048,0.10722241,inf,inf,inf,inf,1,1,1,1,2,0,2,1,4,1,1,0,0
398471156,398469450,87964659,-6.3607016000000005,106.82454369999999,13.314367,-3.3450963,-4.5780764,0.010761263,0.016180344,0.0,0.06810772,-0.055582166,0.40539965,0.44468617,0.10868411,0.077194646,-0.21394694,-1.7922678,2.7623537,-1.3576397,-0.085638404,-0.015291217,90.90057,4.824811,0.36022952,0.39610156,0.13971858,0.10594125,inf,inf,inf,inf,1,1,1,1,2,0,2,1,4,1,1,0,0
398570131,398568396,87964659,-6.3607016000000005,106.82454369999999,13.315317,-3.345346,-4.5514107,0.010761263,0.016180344,0.0,0.060983572,-0.06406024,0.35451436,0.37987518,0.10868411,0.077194646,-0.21394694,-2.445246,0.9218161,0.7991917,-0.085825495,-0.015291217,90.90057,4.7981453,0.36843905,0.39777032,0.14437924,0.107361384,inf,inf,inf,inf,1,1,1,1,2,0,2,1,4,1,1,0,0
398673234,398671806,87964659,-6.3607016000000005,106.82454369999999,13.3144655,-3.3427374,-4.5281215,0.010761263,0.016180344,0.0,0.06504718,-0.06322815,0.3623282,0.37207767,0.10868411,0.077194646,-0.21394694,-1.034281,-0.24661365,-1.3788236,-0.08618656,-0.015291217,90.90057,4.774856,0.3600642,0.39496374,0.13990228,0.105803266,inf,inf,inf,inf,1,1,1,1,2,0,2,1,4,1,1,0,0
398772509,398770737,87964659,-6.3607016000000005,106.82454369999999,13.314362,-3.3402898,-4.5006,0.010761263,0.016180344,0.0,0.067890495,-0.06309944,0.43201402,0.4286045,0.10868411,0.077194646,-0.21394694,0.121781975,0.46452728,1.1035453,-0.08715548,-0.015291217,90.90057,4.7473345,0.3682734,0.39661166,0.14448176,0.10721809,inf,inf,inf,inf,1,1,1,1,2,0,2,1,4,1,1,0,0
398871020,398869667,87964659,-6.3607016000000005,106.82454369999999,13.312931,-3.3358319,-4.466296,0.010761263,0.016180344,0.0,0.066642076,-0.061585583,0.5385829,0.52300996,0.10868411,0.077194646,-0.21394694,1.4971926,-1.5591692,2.1950638,-0.087440796,-0.015291217,90.90057,4.713031,0.3599108,0.39636004,0.13946775,0.10593857,inf,inf,inf,inf,1,1,1,1,2,0,2,1,4,1,1,0,0
398970050,398968598,87964659,-6.3607016000000005,106.82454369999999,13.314293,-3.3328788,-4.4163537,0.010761263,0.016180344,0.0,0.07179447,-0.06230816,0.6162365,0.5935703,0.10868411,0.077194646,-0.21394694,-1.661968,-0.21210165,-1.1886408,-0.0866192,-0.015291217,90.90057,4.6630883,0.36809865,0.3980369,0.14349675,0.10736291,inf,inf,inf,inf,1,1,1,1,2,0,2,1,4,1,1,0,0
399069311,399067528,87964659,-6.3607016000000005,106.82454369999999,13.315149,-3.3289165,-4.379073,0.010761263,0.016180344,0.0,0.07318931,-0.06186282,0.5578545,0.51903397,0.10868411,0.077194646,-0.21394694,-0.34696427,-3.5980976,1.2837915,-0.08527089,-0.015291217,90.90057,4.625808,0.35982573,0.39524096,0.13884021,0.1058224,inf,inf,inf,inf,1,1,1,1,2,0,2,1,4,1,1,0,0
399168104,399166459,87964659,-6.3607016000000005,106.82454369999999,13.317673,-3.3274765,-4.344437,0.010761263,0.016180344,0.0,0.067630135,-0.07100187,0.52794474,0.47549194,0.10868411,0.077194646,-0.21394694,-1.3397584,-3.1556754,-2.7127972,-0.08378565,-0.015291217,90.90057,4.5911717,0.368002,0.39688963,0.14353235,0.10723811,inf,inf,inf,inf,1,1,1,1,2,0,2,1,4,1,1,0,0
399271519,399269912,87964659,-6.3607016000000005,106.82454369999999,13.317568,-3.3216848,-4.316119,0.010761263,0.016180344,0.0,0.07080849,-0.062221732,0.51284367,0.44454983,0.10868411,0.077194646,-0.21394694,-1.7342074,0.2088767,-0.046585314,-0.082341306,-0.015291217,90.90057,4.562854,0.35973498,0.39412174,0.13916183,0.105704226,inf,inf,inf,inf,1,1,1,1,2,0,2,1,4,1,1,0,0
399370485,399368820,87964659,-6.3607016000000005,106.82454369999999,13.318871,-3.3180673,-4.2846036,0.010761263,0.016180344,0.0,0.08122007,-0.06471491,0.5581802,0.4782054,0.10868411,0.077194646,-0.21394694,-0.20068404,-0.78645295,5.1718574,-0.08092228,-0.015291217,90.90057,4.531338,0.36792567,0.39832297,0.14371207,0.107398346,inf,inf,inf,inf,1,1,1,1,2,0,2,1,4,1,1,0,0
399469131,399467747,87964659,-6.3607016000000005,106.82454369999999,13.318526,-3.3097596,-4.254452,0.010761263,0.016180344,0.0,0.08522079,-0.07808814,0.59790826,0.50008214,0.10868411,0.077194646,-0.21394694,1.1436622,-0.6869385,-2.0587728,-0.07969822,-0.015291217,90.90057,4.501187,0.3595643,0.39552167,0.13920176,0.10584422,inf,inf,inf,inf,1,1,1,1,2,0,2,1,4,1,1,0,0
399567958,399566698,87964659,-6.3607016000000005,106.82454369999999,13.318957,-3.3034189,-4.2205186,0.010761263,0.016180344,0.0,0.07606744,-0.078912124,0.60203236,0.4913271,0.10868411,0.077194646,-0.21394694,1.019984,1.6540918,1.0381355,-0.07849208,-0.015291217,90.90057,4.467253,0.36773822,0.39718857,0.14337477,0.107266426,inf,inf,inf,inf,1,1,1,1,2,0,2,1,4,1,1,0,0
399671698,399670105,87964659,-6.3607016000000005,106.82454369999999,13.320032,-3.294581,-4.1945515,0.010761263,0.016180344,0.0,0.072512545,-0.0822776,0.5287231,0.39885172,0.10868411,0.077194646,-0.21394694,0.75175685,-2.7544737,0.90459305,-0.07728446,-0.015291217,90.90057,4.441286,0.35949725,0.39442182,0.13892914,0.105733626,inf,inf,inf,inf,1,1,1,1,2,0,2,1,4,1,1,0,0
399770817,399769043,87964659,-6.3607016000000005,106.82454369999999,13.322281,-3.2893488,-4.1685834,0.010761263,0.016180344,0.0,0.08471463,-0.09004253,0.57493,0.43361342,0.10868411,0.077194646,-0.21394694,1.3693664,-0.69717443,0.13716918,-0.076302834,-0.015291217,90.90057,4.415318,0.36767578,0.3986301,0.14355223,0.10742955,inf,inf,inf,inf,1,1,1,1,2,0,2,1,4,1,1,0,0
399869259,399867966,87964659,-6.3607016000000005,106.82454369999999,13.326027,-3.27656,-4.150426,0.010761263,0.016180344,0.0,0.077067025,-0.09014088,0.5477547,0.38742897,0.10868411,0.077194646,-0.21394694,1.1558312,0.53413594,-0.8069777,-0.075314194,-0.015291217,90.90057,4.3971605,0.35941795,0.39582828,0.13917668,0.10588823,inf,inf,inf,inf,1,1,1,1,2,0,2,1,4,1,1,0,0
399968244,399966896,87964659,-6.3607016000000005,106.82454369999999,13.331501,-3.2676568,-4.12125,0.010761263,0.016180344,0.0,0.08145424,-0.08728732,0.60831726,0.43769863,0.10868411,0.077194646,-0.21394694,-0.75069076,1.4230338,-2.2226982,-0.07401494,-0.015291217,90.90057,4.367985,0.36760196,0.39750597,0.14362757,0.10731318,inf,inf,inf,inf,1,1,1,1,2,0,2,1,4,1,1,0,0
400071653,400070324,87964659,-6.3607016000000005,106.82454369999999,13.338274,-3.2559211,-4.0989428,0.010761263,0.016180344,0.0,0.092353284,-0.10871966,0.6144632,0.42633697,0.10868411,0.077194646,-0.21394694,1.0038354,-3.0653663,8.311807,-0.07233619,-0.015291217,90.90057,4.3456774,0.3593506,0.3947306,0.13892898,0.105777845,inf,inf,inf,inf,1,1,1,1,2,0,2,1,4,1,1,0,0
